Time,header.seq,header.stamp.secs,header.stamp.nsecs,header.frame_id,raw,imu.header.seq,imu.header.stamp.secs,imu.header.stamp.nsecs,imu.header.frame_id,imu.orientation.x,imu.orientation.y,imu.orientation.z,imu.orientation.w,imu.orientation_covariance,imu.angular_velocity.x,imu.angular_velocity.y,imu.angular_velocity.z,imu.angular_velocity_covariance,imu.linear_acceleration.x,imu.linear_acceleration.y,imu.linear_acceleration.z,imu.linear_acceleration_covariance,mag_field.header.seq,mag_field.header.stamp.secs,mag_field.header.stamp.nsecs,mag_field.header.frame_id,mag_field.magnetic_field.x,mag_field.magnetic_field.y,mag_field.magnetic_field.z,mag_field.magnetic_field_covariance
1677800875.0771039,6745,1677800875,38954734,imu1_frame,"$VNYMR,+139.804,+078.327,-120.896,-00.3961,-00.1085,+00.1197,+03.791,+03.564,-00.651,-01.960068,-00.637107,+01.475126*67",0,0,0,,-0.5242841737922344,-0.5263756962851541,0.5479060280047808,-0.38451751058610795,"(0.0, 0.0, 0.0, 0.0, 0.0, 0.0, 0.0, 0.0, 0.0)",-1.960068,-0.637107,1.475126,"(0.0, 0.0, 0.0, 0.0, 0.0, 0.0, 0.0, 0.0, 0.0)",3.791,3.564,-0.651,"(0.0, 0.0, 0.0, 0.0, 0.0, 0.0, 0.0, 0.0, 0.0)",0,0,0,,-0.3961,-0.1085,0.1197,"(0.0, 0.0, 0.0, 0.0, 0.0, 0.0, 0.0, 0.0, 0.0)"
1677800875.0771246,6746,1677800875,64510822,imu1_frame,"$VNYMR,+137.461,+080.624,-126.399,-00.4052,-00.0967,+00.1304,+04.175,+01.200,-02.821,-02.387116,-00.511105,+01.442679*64",0,0,0,,-0.5187302794799489,-0.5284462957095035,0.52987069985719,-0.41340107780992746,"(0.0, 0.0, 0.0, 0.0, 0.0, 0.0, 0.0, 0.0, 0.0)",-2.387116,-0.511105,1.442679,"(0.0, 0.0, 0.0, 0.0, 0.0, 0.0, 0.0, 0.0, 0.0)",4.175,1.2,-2.821,"(0.0, 0.0, 0.0, 0.0, 0.0, 0.0, 0.0, 0.0, 0.0)",0,0,0,,-0.4052,-0.0967,0.1304,"(0.0, 0.0, 0.0, 0.0, 0.0, 0.0, 0.0, 0.0, 0.0)"
1677800875.1211057,6747,1677800875,89816331,imu1_frame,"$VNYMR,+130.580,+082.465,-136.931,-00.4086,-00.0674,+00.1375,+04.202,+01.385,-02.224,-02.685372,-00.213295,+01.491713*68",0,0,0,,-0.5122115224198663,-0.5343569383034485,0.5070639822775067,-0.4415746105293684,"(0.0, 0.0, 0.0, 0.0, 0.0, 0.0, 0.0, 0.0, 0.0)",-2.685372,-0.213295,1.491713,"(0.0, 0.0, 0.0, 0.0, 0.0, 0.0, 0.0, 0.0, 0.0)",4.202,1.385,-2.224,"(0.0, 0.0, 0.0, 0.0, 0.0, 0.0, 0.0, 0.0, 0.0)",0,0,0,,-0.4086,-0.0674,0.1375,"(0.0, 0.0, 0.0, 0.0, 0.0, 0.0, 0.0, 0.0, 0.0)"
1677800875.121132,6748,1677800875,115117549,imu1_frame,"$VNYMR,+116.251,+084.006,-155.230,-00.4155,-00.0643,+00.1243,+03.672,-00.073,-01.241,-02.957387,-00.274049,+01.606060*6E",0,0,0,,-0.5051558708267377,-0.5405793449241815,0.4804868741640087,-0.47087565425144173,"(0.0, 0.0, 0.0, 0.0, 0.0, 0.0, 0.0, 0.0, 0.0)",-2.957387,-0.274049,1.60606,"(0.0, 0.0, 0.0, 0.0, 0.0, 0.0, 0.0, 0.0, 0.0)",3.672,-0.073,-1.241,"(0.0, 0.0, 0.0, 0.0, 0.0, 0.0, 0.0, 0.0, 0.0)",0,0,0,,-0.4155,-0.0643,0.1243,"(0.0, 0.0, 0.0, 0.0, 0.0, 0.0, 0.0, 0.0, 0.0)"
1677800875.1648765,6749,1677800875,138702392,imu1_frame,"$VNYMR,+093.929,+085.037,+178.067,-00.4178,-00.0502,+00.1292,+02.859,-01.864,-00.515,-03.271172,-00.465383,+01.531770*63",0,0,0,,0.494603046166516,0.5464425102750098,-0.45206692997882664,0.5023981493861894,"(0.0, 0.0, 0.0, 0.0, 0.0, 0.0, 0.0, 0.0, 0.0)",-3.271172,-0.465383,1.53177,"(0.0, 0.0, 0.0, 0.0, 0.0, 0.0, 0.0, 0.0, 0.0)",2.859,-1.864,-0.515,"(0.0, 0.0, 0.0, 0.0, 0.0, 0.0, 0.0, 0.0, 0.0)",0,0,0,,-0.4178,-0.0502,0.1292,"(0.0, 0.0, 0.0, 0.0, 0.0, 0.0, 0.0, 0.0, 0.0)"
1677800875.166576,6750,1677800875,164172887,imu1_frame,"$VNYMR,+068.284,+085.328,+147.608,-00.4211,-00.0244,+00.1312,+02.504,-03.519,-00.372,-03.449890,-00.743098,+01.216265*67",0,0,0,,0.47836022841146003,0.5527751851717335,-0.42352192822578144,0.5350142641504129,"(0.0, 0.0, 0.0, 0.0, 0.0, 0.0, 0.0, 0.0, 0.0)",-3.44989,-0.743098,1.216265,"(0.0, 0.0, 0.0, 0.0, 0.0, 0.0, 0.0, 0.0, 0.0)",2.504,-3.519,-0.372,"(0.0, 0.0, 0.0, 0.0, 0.0, 0.0, 0.0, 0.0, 0.0)",0,0,0,,-0.4211,-0.0244,0.1312,"(0.0, 0.0, 0.0, 0.0, 0.0, 0.0, 0.0, 0.0, 0.0)"
1677800875.2085924,6751,1677800875,189479827,imu1_frame,"$VNYMR,+046.765,+085.075,+121.313,-00.4224,-00.0278,+00.1503,+02.996,-04.080,-01.500,-03.277803,-00.731009,+00.918170*62",0,0,0,,0.4580646785837663,0.5590043460298678,-0.3976308356850282,0.5653146114033288,"(0.0, 0.0, 0.0, 0.0, 0.0, 0.0, 0.0, 0.0, 0.0)",-3.277803,-0.731009,0.91817,"(0.0, 0.0, 0.0, 0.0, 0.0, 0.0, 0.0, 0.0, 0.0)",2.996,-4.08,-1.5,"(0.0, 0.0, 0.0, 0.0, 0.0, 0.0, 0.0, 0.0, 0.0)",0,0,0,,-0.4224,-0.0278,0.1503,"(0.0, 0.0, 0.0, 0.0, 0.0, 0.0, 0.0, 0.0, 0.0)"
1677800875.2539794,6752,1677800875,214833259,imu1_frame,"$VNYMR,+030.625,+084.180,+101.170,-00.4180,-00.0213,+00.1572,+02.755,-05.729,-01.137,-02.532892,-00.870413,+00.993047*67",0,0,0,,0.44057163379630326,0.5618884414625293,-0.3750353153897473,0.5912076852133931,"(0.0, 0.0, 0.0, 0.0, 0.0, 0.0, 0.0, 0.0, 0.0)",-2.532892,-0.870413,0.993047,"(0.0, 0.0, 0.0, 0.0, 0.0, 0.0, 0.0, 0.0, 0.0)",2.755,-5.729,-1.137,"(0.0, 0.0, 0.0, 0.0, 0.0, 0.0, 0.0, 0.0, 0.0)",0,0,0,,-0.418,-0.0213,0.1572,"(0.0, 0.0, 0.0, 0.0, 0.0, 0.0, 0.0, 0.0, 0.0)"
1677800875.2540019,6753,1677800875,238392829,imu1_frame,"$VNYMR,+016.876,+082.898,+084.645,-00.4169,-00.0118,+00.1675,+02.166,-08.923,-00.270,-01.721577,-01.208797,+00.897981*6D",0,0,0,,0.4273900895408881,0.5581831745176506,-0.3595492510253628,0.6135907358612338,"(0.0, 0.0, 0.0, 0.0, 0.0, 0.0, 0.0, 0.0, 0.0)",-1.721577,-1.208797,0.897981,"(0.0, 0.0, 0.0, 0.0, 0.0, 0.0, 0.0, 0.0, 0.0)",2.166,-8.923,-0.27,"(0.0, 0.0, 0.0, 0.0, 0.0, 0.0, 0.0, 0.0, 0.0)",0,0,0,,-0.4169,-0.0118,0.1675,"(0.0, 0.0, 0.0, 0.0, 0.0, 0.0, 0.0, 0.0, 0.0)"
1677800875.2980056,6754,1677800875,263862609,imu1_frame,"$VNYMR,+003.645,+081.573,+069.332,-00.4149,+00.0047,+00.1956,+02.715,-11.874,-01.691,-01.542851,-01.480294,+00.387926*61",0,0,0,,0.41335485207639144,0.550704390380855,-0.3515655035185659,0.6342429640255322,"(0.0, 0.0, 0.0, 0.0, 0.0, 0.0, 0.0, 0.0, 0.0)",-1.542851,-1.480294,0.387926,"(0.0, 0.0, 0.0, 0.0, 0.0, 0.0, 0.0, 0.0, 0.0)",2.715,-11.874,-1.691,"(0.0, 0.0, 0.0, 0.0, 0.0, 0.0, 0.0, 0.0, 0.0)",0,0,0,,-0.4149,0.0047,0.1956,"(0.0, 0.0, 0.0, 0.0, 0.0, 0.0, 0.0, 0.0, 0.0)"
1677800875.2980323,6755,1677800875,289211750,imu1_frame,"$VNYMR,-007.728,+080.661,+055.685,-00.4062,-00.0105,+00.2208,+04.596,-18.410,-07.953,-01.568220,-01.021579,-00.381751*6A",0,0,0,,0.39379301911928893,0.5469792244054726,-0.3470056135956869,0.6521716724105577,"(0.0, 0.0, 0.0, 0.0, 0.0, 0.0, 0.0, 0.0, 0.0)",-1.56822,-1.021579,-0.381751,"(0.0, 0.0, 0.0, 0.0, 0.0, 0.0, 0.0, 0.0, 0.0)",4.596,-18.41,-7.953,"(0.0, 0.0, 0.0, 0.0, 0.0, 0.0, 0.0, 0.0, 0.0)",0,0,0,,-0.4062,-0.0105,0.2208,"(0.0, 0.0, 0.0, 0.0, 0.0, 0.0, 0.0, 0.0, 0.0)"
1677800875.3452628,6756,1677800875,314505815,imu1_frame,"$VNYMR,-020.036,+081.624,+042.301,-00.4039,-00.0258,+00.2121,+05.144,-15.627,-02.150,-00.465288,-00.666407,-01.769507*6B",0,0,0,,0.37496110683700257,0.5527517522557267,-0.35502013647716596,0.654087434089303,"(0.0, 0.0, 0.0, 0.0, 0.0, 0.0, 0.0, 0.0, 0.0)",-0.465288,-0.666407,-1.769507,"(0.0, 0.0, 0.0, 0.0, 0.0, 0.0, 0.0, 0.0, 0.0)",5.144,-15.627,-2.15,"(0.0, 0.0, 0.0, 0.0, 0.0, 0.0, 0.0, 0.0, 0.0)",0,0,0,,-0.4039,-0.0258,0.2121,"(0.0, 0.0, 0.0, 0.0, 0.0, 0.0, 0.0, 0.0, 0.0)"
1677800875.3452706,6757,1677800875,340031862,imu1_frame,"$VNYMR,-038.195,+081.183,+024.564,-00.3962,-00.0363,+00.2371,+07.942,-10.829,-01.311,+00.469543,-01.699739,-01.013996*6D",0,0,0,,0.36065389457469155,0.5479282035494564,-0.3735543492540153,0.6558662975306644,"(0.0, 0.0, 0.0, 0.0, 0.0, 0.0, 0.0, 0.0, 0.0)",0.469543,-1.699739,-1.013996,"(0.0, 0.0, 0.0, 0.0, 0.0, 0.0, 0.0, 0.0, 0.0)",7.942,-10.829,-1.311,"(0.0, 0.0, 0.0, 0.0, 0.0, 0.0, 0.0, 0.0, 0.0)",0,0,0,,-0.3962,-0.0363,0.2371,"(0.0, 0.0, 0.0, 0.0, 0.0, 0.0, 0.0, 0.0, 0.0)"
1677800875.3926451,6758,1677800875,363397359,imu1_frame,"$VNYMR,-047.754,+079.308,+016.002,-00.3863,-00.0433,+00.2609,+11.154,-13.682,-03.428,+00.553099,-01.365022,-00.547902*66",0,0,0,,0.35378525258625193,0.5344770599552441,-0.3898296501373331,0.6612133629229561,"(0.0, 0.0, 0.0, 0.0, 0.0, 0.0, 0.0, 0.0, 0.0)",0.553099,-1.365022,-0.547902,"(0.0, 0.0, 0.0, 0.0, 0.0, 0.0, 0.0, 0.0, 0.0)",11.154,-13.682,-3.428,"(0.0, 0.0, 0.0, 0.0, 0.0, 0.0, 0.0, 0.0, 0.0)",0,0,0,,-0.3863,-0.0433,0.2609,"(0.0, 0.0, 0.0, 0.0, 0.0, 0.0, 0.0, 0.0, 0.0)"
1677800875.3926644,6759,1677800875,388835668,imu1_frame,"$VNYMR,-053.897,+077.952,+010.427,-00.3752,-00.0492,+00.2798,+13.554,-14.100,-03.155,+00.391893,-00.953147,-00.538307*60",0,0,0,,0.3468449745826021,0.526361559170327,-0.4018050536042085,0.6642249404627139,"(0.0, 0.0, 0.0, 0.0, 0.0, 0.0, 0.0, 0.0, 0.0)",0.391893,-0.953147,-0.538307,"(0.0, 0.0, 0.0, 0.0, 0.0, 0.0, 0.0, 0.0, 0.0)",13.554,-14.1,-3.155,"(0.0, 0.0, 0.0, 0.0, 0.0, 0.0, 0.0, 0.0, 0.0)",0,0,0,,-0.3752,-0.0492,0.2798,"(0.0, 0.0, 0.0, 0.0, 0.0, 0.0, 0.0, 0.0, 0.0)"
1677800875.4328842,6760,1677800875,414281368,imu1_frame,"$VNYMR,-057.195,+076.615,+008.443,-00.3674,-00.0410,+00.2816,+15.741,-15.254,-04.864,+01.184207,-00.975784,-00.269920*61",0,0,0,,0.34662002871938585,0.5151333391539802,-0.4146423312453857,0.6652547900782333,"(0.0, 0.0, 0.0, 0.0, 0.0, 0.0, 0.0, 0.0, 0.0)",1.184207,-0.975784,-0.26992,"(0.0, 0.0, 0.0, 0.0, 0.0, 0.0, 0.0, 0.0, 0.0)",15.741,-15.254,-4.864,"(0.0, 0.0, 0.0, 0.0, 0.0, 0.0, 0.0, 0.0, 0.0)",0,0,0,,-0.3674,-0.041,0.2816,"(0.0, 0.0, 0.0, 0.0, 0.0, 0.0, 0.0, 0.0, 0.0)"
1677800875.4418225,6761,1677800875,439607620,imu1_frame,"$VNYMR,-060.089,+076.177,+008.063,-00.3630,-00.0398,+00.2985,+15.988,-15.765,-03.002,+02.007351,-00.077357,-00.595155*67",0,0,0,,0.3559887736503004,0.5049666323161511,-0.43062588984665084,0.6579073158705717,"(0.0, 0.0, 0.0, 0.0, 0.0, 0.0, 0.0, 0.0, 0.0)",2.007351,-0.077357,-0.595155,"(0.0, 0.0, 0.0, 0.0, 0.0, 0.0, 0.0, 0.0, 0.0)",15.988,-15.765,-3.002,"(0.0, 0.0, 0.0, 0.0, 0.0, 0.0, 0.0, 0.0, 0.0)",0,0,0,,-0.363,-0.0398,0.2985,"(0.0, 0.0, 0.0, 0.0, 0.0, 0.0, 0.0, 0.0, 0.0)"
1677800875.4845812,6762,1677800875,465057134,imu1_frame,"$VNYMR,-065.194,+076.302,+006.381,-00.3574,-00.0386,+00.3015,+15.849,-13.599,-00.571,+02.524895,-00.080955,-01.000102*67",0,0,0,,0.3691479668351752,0.4960455460001478,-0.4519552486445404,0.642965821873545,"(0.0, 0.0, 0.0, 0.0, 0.0, 0.0, 0.0, 0.0, 0.0)",2.524895,-0.080955,-1.000102,"(0.0, 0.0, 0.0, 0.0, 0.0, 0.0, 0.0, 0.0, 0.0)",15.849,-13.599,-0.571,"(0.0, 0.0, 0.0, 0.0, 0.0, 0.0, 0.0, 0.0, 0.0)",0,0,0,,-0.3574,-0.0386,0.3015,"(0.0, 0.0, 0.0, 0.0, 0.0, 0.0, 0.0, 0.0, 0.0)"
1677800875.529544,6763,1677800875,488584280,imu1_frame,"$VNYMR,-071.727,+076.150,+003.916,-00.3484,-00.0445,+00.2984,+15.502,-11.507,-02.926,+03.009636,-00.064555,-01.154645*6B",0,0,0,,0.38287933900658244,0.48372764940989665,-0.4779950067615355,0.625245349018526,"(0.0, 0.0, 0.0, 0.0, 0.0, 0.0, 0.0, 0.0, 0.0)",3.009636,-0.064555,-1.154645,"(0.0, 0.0, 0.0, 0.0, 0.0, 0.0, 0.0, 0.0, 0.0)",15.502,-11.507,-2.926,"(0.0, 0.0, 0.0, 0.0, 0.0, 0.0, 0.0, 0.0, 0.0)",0,0,0,,-0.3484,-0.0445,0.2984,"(0.0, 0.0, 0.0, 0.0, 0.0, 0.0, 0.0, 0.0, 0.0)"
1677800875.529571,6764,1677800875,513876914,imu1_frame,"$VNYMR,-079.716,+076.005,+001.054,-00.3484,-00.0257,+00.3059,+14.530,-08.510,-03.298,+03.549157,-00.267650,-01.462941*6C",0,0,0,,0.4001384167438053,0.4679648452182388,-0.5093344793200157,0.6012291902938838,"(0.0, 0.0, 0.0, 0.0, 0.0, 0.0, 0.0, 0.0, 0.0)",3.549157,-0.26765,-1.462941,"(0.0, 0.0, 0.0, 0.0, 0.0, 0.0, 0.0, 0.0, 0.0)",14.53,-8.51,-3.298,"(0.0, 0.0, 0.0, 0.0, 0.0, 0.0, 0.0, 0.0, 0.0)",0,0,0,,-0.3484,-0.0257,0.3059,"(0.0, 0.0, 0.0, 0.0, 0.0, 0.0, 0.0, 0.0, 0.0)"
1677800875.5765262,6765,1677800875,539329767,imu1_frame,"$VNYMR,-088.191,+075.867,-001.632,-00.3412,-00.0246,+00.3036,+13.588,-02.759,-03.738,+04.091953,-00.004763,-01.272093*60",0,0,0,,0.4196648695347658,0.44927066587881387,-0.5424959559615544,0.5724817934437166,"(0.0, 0.0, 0.0, 0.0, 0.0, 0.0, 0.0, 0.0, 0.0)",4.091953,-0.004763,-1.272093,"(0.0, 0.0, 0.0, 0.0, 0.0, 0.0, 0.0, 0.0, 0.0)",13.588,-2.759,-3.738,"(0.0, 0.0, 0.0, 0.0, 0.0, 0.0, 0.0, 0.0, 0.0)",0,0,0,,-0.3412,-0.0246,0.3036,"(0.0, 0.0, 0.0, 0.0, 0.0, 0.0, 0.0, 0.0, 0.0)"
1677800875.5765474,6766,1677800875,564666509,imu1_frame,"$VNYMR,-093.162,+075.652,-000.162,-00.3413,-00.0151,+00.3215,+11.726,-00.920,-03.271,+04.546650,-00.257274,-00.574526*6B",0,0,0,,0.4446755027721792,0.42232550144561903,-0.5731279998013364,0.543533958374944,"(0.0, 0.0, 0.0, 0.0, 0.0, 0.0, 0.0, 0.0, 0.0)",4.54665,-0.257274,-0.574526,"(0.0, 0.0, 0.0, 0.0, 0.0, 0.0, 0.0, 0.0, 0.0)",11.726,-0.92,-3.271,"(0.0, 0.0, 0.0, 0.0, 0.0, 0.0, 0.0, 0.0, 0.0)",0,0,0,,-0.3413,-0.0151,0.3215,"(0.0, 0.0, 0.0, 0.0, 0.0, 0.0, 0.0, 0.0, 0.0)"
1677800875.6222699,6767,1677800875,590030431,imu1_frame,"$VNYMR,-095.303,+075.074,+004.458,-00.3356,+00.0060,+00.3102,+09.386,-01.575,-02.655,+04.673043,-00.595470,-00.336372*66",0,0,0,,0.4707254662922857,0.3873261145641492,-0.6015656250235993,0.516250728958823,"(0.0, 0.0, 0.0, 0.0, 0.0, 0.0, 0.0, 0.0, 0.0)",4.673043,-0.59547,-0.336372,"(0.0, 0.0, 0.0, 0.0, 0.0, 0.0, 0.0, 0.0, 0.0)",9.386,-1.575,-2.655,"(0.0, 0.0, 0.0, 0.0, 0.0, 0.0, 0.0, 0.0, 0.0)",0,0,0,,-0.3356,0.006,0.3102,"(0.0, 0.0, 0.0, 0.0, 0.0, 0.0, 0.0, 0.0, 0.0)"
1677800875.6222925,6768,1677800875,613634824,imu1_frame,"$VNYMR,-097.649,+073.717,+008.852,-00.3249,+00.0391,+00.3294,+06.513,-02.908,-03.101,+04.519490,-01.206343,-00.430394*6F",0,0,0,,0.49080348692836484,0.3472618253486979,-0.6309272601930191,0.4903590054437456,"(0.0, 0.0, 0.0, 0.0, 0.0, 0.0, 0.0, 0.0, 0.0)",4.51949,-1.206343,-0.430394,"(0.0, 0.0, 0.0, 0.0, 0.0, 0.0, 0.0, 0.0, 0.0)",6.513,-2.908,-3.101,"(0.0, 0.0, 0.0, 0.0, 0.0, 0.0, 0.0, 0.0, 0.0)",0,0,0,,-0.3249,0.0391,0.3294,"(0.0, 0.0, 0.0, 0.0, 0.0, 0.0, 0.0, 0.0, 0.0)"
1677800875.6666272,6769,1677800875,638930797,imu1_frame,"$VNYMR,-102.820,+072.155,+009.616,-00.3160,+00.0615,+00.3414,+04.776,-03.571,-03.388,+03.594908,-01.256168,-01.251248*61",0,0,0,,0.5009194758158255,0.31306712204425996,-0.6602932111392147,0.4637688337596519,"(0.0, 0.0, 0.0, 0.0, 0.0, 0.0, 0.0, 0.0, 0.0)",3.594908,-1.256168,-1.251248,"(0.0, 0.0, 0.0, 0.0, 0.0, 0.0, 0.0, 0.0, 0.0)",4.776,-3.571,-3.388,"(0.0, 0.0, 0.0, 0.0, 0.0, 0.0, 0.0, 0.0, 0.0)",0,0,0,,-0.316,0.0615,0.3414,"(0.0, 0.0, 0.0, 0.0, 0.0, 0.0, 0.0, 0.0, 0.0)"
1677800875.6671355,6770,1677800875,664380788,imu1_frame,"$VNYMR,-111.994,+070.404,+004.862,-00.3103,+00.0567,+00.3380,+04.259,-01.963,-05.606,+02.132487,-01.560839,-02.313535*62",0,0,0,,0.49684349338410294,0.2933548147580879,-0.6904676215737563,0.4362842643259198,"(0.0, 0.0, 0.0, 0.0, 0.0, 0.0, 0.0, 0.0, 0.0)",2.132487,-1.560839,-2.313535,"(0.0, 0.0, 0.0, 0.0, 0.0, 0.0, 0.0, 0.0, 0.0)",4.259,-1.963,-5.606,"(0.0, 0.0, 0.0, 0.0, 0.0, 0.0, 0.0, 0.0, 0.0)",0,0,0,,-0.3103,0.0567,0.338,"(0.0, 0.0, 0.0, 0.0, 0.0, 0.0, 0.0, 0.0, 0.0)"
1677800875.7094374,6771,1677800875,689710140,imu1_frame,"$VNYMR,-124.087,+068.547,-004.429,-00.2969,+00.0355,+00.3521,+04.082,+01.940,-08.143,+01.101338,-01.030192,-03.261003*6F",0,0,0,,0.48208631878762137,0.2920101485755133,-0.7191795122749306,0.40632952574320713,"(0.0, 0.0, 0.0, 0.0, 0.0, 0.0, 0.0, 0.0, 0.0)",1.101338,-1.030192,-3.261003,"(0.0, 0.0, 0.0, 0.0, 0.0, 0.0, 0.0, 0.0, 0.0)",4.082,1.94,-8.143,"(0.0, 0.0, 0.0, 0.0, 0.0, 0.0, 0.0, 0.0, 0.0)",0,0,0,,-0.2969,0.0355,0.3521,"(0.0, 0.0, 0.0, 0.0, 0.0, 0.0, 0.0, 0.0, 0.0)"
1677800875.753022,6772,1677800875,715068578,imu1_frame,"$VNYMR,-135.738,+066.788,-013.706,-00.2937,+00.0096,+00.3565,+03.758,+06.372,-07.910,+01.163156,-00.545914,-03.111575*68",0,0,0,,0.46866999664369974,0.2981490501430291,-0.7431271494766063,0.3731187717812888,"(0.0, 0.0, 0.0, 0.0, 0.0, 0.0, 0.0, 0.0, 0.0)",1.163156,-0.545914,-3.111575,"(0.0, 0.0, 0.0, 0.0, 0.0, 0.0, 0.0, 0.0, 0.0)",3.758,6.372,-7.91,"(0.0, 0.0, 0.0, 0.0, 0.0, 0.0, 0.0, 0.0, 0.0)",0,0,0,,-0.2937,0.0096,0.3565,"(0.0, 0.0, 0.0, 0.0, 0.0, 0.0, 0.0, 0.0, 0.0)"
1677800875.753045,6773,1677800875,738619089,imu1_frame,"$VNYMR,-143.411,+065.175,-018.251,-00.2904,-00.0045,+00.3684,+02.118,+07.791,-03.466,+02.010048,-00.601419,-01.900056*68",0,0,0,,0.46294578053650526,0.29379865241111897,-0.7630446173180034,0.34223744404561907,"(0.0, 0.0, 0.0, 0.0, 0.0, 0.0, 0.0, 0.0, 0.0)",2.010048,-0.601419,-1.900056,"(0.0, 0.0, 0.0, 0.0, 0.0, 0.0, 0.0, 0.0, 0.0)",2.118,7.791,-3.466,"(0.0, 0.0, 0.0, 0.0, 0.0, 0.0, 0.0, 0.0, 0.0)",0,0,0,,-0.2904,-0.0045,0.3684,"(0.0, 0.0, 0.0, 0.0, 0.0, 0.0, 0.0, 0.0, 0.0)"
1677800875.7981954,6774,1677800875,764029264,imu1_frame,"$VNYMR,-147.733,+062.985,-019.430,-00.2793,-00.0057,+00.3821,-00.212,+04.216,-02.379,+01.615761,-01.233959,-01.783325*62",0,0,0,,0.45463306816502913,0.2813027476159844,-0.7828841733227899,0.31822933346132903,"(0.0, 0.0, 0.0, 0.0, 0.0, 0.0, 0.0, 0.0, 0.0)",1.615761,-1.233959,-1.783325,"(0.0, 0.0, 0.0, 0.0, 0.0, 0.0, 0.0, 0.0, 0.0)",-0.212,4.216,-2.379,"(0.0, 0.0, 0.0, 0.0, 0.0, 0.0, 0.0, 0.0, 0.0)",0,0,0,,-0.2793,-0.0057,0.3821,"(0.0, 0.0, 0.0, 0.0, 0.0, 0.0, 0.0, 0.0, 0.0)"
1677800875.7982183,6775,1677800875,789510488,imu1_frame,"$VNYMR,-153.126,+060.185,-022.966,-00.2657,-00.0223,+00.3807,-00.327,+03.698,-07.076,+00.285939,-00.986580,-02.832599*6A",0,0,0,,0.4378852969949281,0.281710562843305,-0.8014933206097529,0.29411576373279247,"(0.0, 0.0, 0.0, 0.0, 0.0, 0.0, 0.0, 0.0, 0.0)",0.285939,-0.98658,-2.832599,"(0.0, 0.0, 0.0, 0.0, 0.0, 0.0, 0.0, 0.0, 0.0)",-0.327,3.698,-7.076,"(0.0, 0.0, 0.0, 0.0, 0.0, 0.0, 0.0, 0.0, 0.0)",0,0,0,,-0.2657,-0.0223,0.3807,"(0.0, 0.0, 0.0, 0.0, 0.0, 0.0, 0.0, 0.0, 0.0)"
1677800875.8406835,6776,1677800875,814833641,imu1_frame,"$VNYMR,-160.885,+057.947,-028.881,-00.2635,-00.0341,+00.3887,+00.034,+07.090,-08.340,+01.010229,+00.262073,-03.180793*65",0,0,0,,0.4263666045499995,0.293023821368023,-0.8153883423292798,0.25978916418683534,"(0.0, 0.0, 0.0, 0.0, 0.0, 0.0, 0.0, 0.0, 0.0)",1.010229,0.262073,-3.180793,"(0.0, 0.0, 0.0, 0.0, 0.0, 0.0, 0.0, 0.0, 0.0)",0.034,7.09,-8.34,"(0.0, 0.0, 0.0, 0.0, 0.0, 0.0, 0.0, 0.0, 0.0)",0,0,0,,-0.2635,-0.0341,0.3887,"(0.0, 0.0, 0.0, 0.0, 0.0, 0.0, 0.0, 0.0, 0.0)"
1677800875.8410306,6777,1677800875,838282585,imu1_frame,"$VNYMR,-167.340,+056.102,-031.433,-00.2594,-00.0551,+00.3889,-00.422,+10.424,-06.632,+02.546470,+00.058887,-02.376291*68",0,0,0,,0.42355913790851324,0.28750973851277234,-0.830311123383854,0.22027084541435915,"(0.0, 0.0, 0.0, 0.0, 0.0, 0.0, 0.0, 0.0, 0.0)",2.54647,0.058887,-2.376291,"(0.0, 0.0, 0.0, 0.0, 0.0, 0.0, 0.0, 0.0, 0.0)",-0.422,10.424,-6.632,"(0.0, 0.0, 0.0, 0.0, 0.0, 0.0, 0.0, 0.0, 0.0)",0,0,0,,-0.2594,-0.0551,0.3889,"(0.0, 0.0, 0.0, 0.0, 0.0, 0.0, 0.0, 0.0, 0.0)"
1677800875.885215,6778,1677800875,863780975,imu1_frame,"$VNYMR,-171.143,+054.351,-030.865,-00.2515,-00.0505,+00.3856,-01.212,+09.368,-05.552,+02.442417,-00.592833,-01.627413*69",0,0,0,,0.42065708798215923,0.27001546750348226,-0.8455920187815322,0.18738569692540155,"(0.0, 0.0, 0.0, 0.0, 0.0, 0.0, 0.0, 0.0, 0.0)",2.442417,-0.592833,-1.627413,"(0.0, 0.0, 0.0, 0.0, 0.0, 0.0, 0.0, 0.0, 0.0)",-1.212,9.368,-5.552,"(0.0, 0.0, 0.0, 0.0, 0.0, 0.0, 0.0, 0.0, 0.0)",0,0,0,,-0.2515,-0.0505,0.3856,"(0.0, 0.0, 0.0, 0.0, 0.0, 0.0, 0.0, 0.0, 0.0)"
1677800875.9361062,6779,1677800875,889190196,imu1_frame,"$VNYMR,-173.442,+052.307,-029.190,-00.2459,-00.0339,+00.3987,-01.453,+08.360,-05.880,+02.292946,-01.196538,-01.367318*6C",0,0,0,,0.41291840120560586,0.2502135747901887,-0.8608762869574345,0.16057266109429053,"(0.0, 0.0, 0.0, 0.0, 0.0, 0.0, 0.0, 0.0, 0.0)",2.292946,-1.196538,-1.367318,"(0.0, 0.0, 0.0, 0.0, 0.0, 0.0, 0.0, 0.0, 0.0)",-1.453,8.36,-5.88,"(0.0, 0.0, 0.0, 0.0, 0.0, 0.0, 0.0, 0.0, 0.0)",0,0,0,,-0.2459,-0.0339,0.3987,"(0.0, 0.0, 0.0, 0.0, 0.0, 0.0, 0.0, 0.0, 0.0)"
1677800875.9361336,6780,1677800875,914487600,imu1_frame,"$VNYMR,-174.727,+049.961,-027.212,-00.2336,-00.0374,+00.4125,+01.177,+09.116,-12.949,+02.295377,-00.797934,-01.114504*6D",0,0,0,,0.4002149809225854,0.2318922993334466,-0.8755108238111688,0.13976669111226162,"(0.0, 0.0, 0.0, 0.0, 0.0, 0.0, 0.0, 0.0, 0.0)",2.295377,-0.797934,-1.114504,"(0.0, 0.0, 0.0, 0.0, 0.0, 0.0, 0.0, 0.0, 0.0)",1.177,9.116,-12.949,"(0.0, 0.0, 0.0, 0.0, 0.0, 0.0, 0.0, 0.0, 0.0)",0,0,0,,-0.2336,-0.0374,0.4125,"(0.0, 0.0, 0.0, 0.0, 0.0, 0.0, 0.0, 0.0, 0.0)"
1677800875.9799943,6781,1677800875,939857244,imu1_frame,"$VNYMR,-175.009,+048.399,-023.797,-00.2223,-00.0174,+00.4222,+00.819,+10.827,-10.132,+02.461734,-01.097276,-00.183725*6A",0,0,0,,0.3925390816598496,0.20534661218107905,-0.8879998293642223,0.12329696380895817,"(0.0, 0.0, 0.0, 0.0, 0.0, 0.0, 0.0, 0.0, 0.0)",2.461734,-1.097276,-0.183725,"(0.0, 0.0, 0.0, 0.0, 0.0, 0.0, 0.0, 0.0, 0.0)",0.819,10.827,-10.132,"(0.0, 0.0, 0.0, 0.0, 0.0, 0.0, 0.0, 0.0, 0.0)",0,0,0,,-0.2223,-0.0174,0.4222,"(0.0, 0.0, 0.0, 0.0, 0.0, 0.0, 0.0, 0.0, 0.0)"
1677800875.9800162,6782,1677800875,963366031,imu1_frame,"$VNYMR,-172.912,+046.833,-018.697,-00.2112,+00.0176,+00.4151,+01.087,+08.866,-08.705,+02.261729,-01.824146,+01.020996*6A",0,0,0,,0.3821698670036939,0.17301538470097655,-0.8997305862559241,0.12040241511997676,"(0.0, 0.0, 0.0, 0.0, 0.0, 0.0, 0.0, 0.0, 0.0)",2.261729,-1.824146,1.020996,"(0.0, 0.0, 0.0, 0.0, 0.0, 0.0, 0.0, 0.0, 0.0)",1.087,8.866,-8.705,"(0.0, 0.0, 0.0, 0.0, 0.0, 0.0, 0.0, 0.0, 0.0)",0,0,0,,-0.2112,0.0176,0.4151,"(0.0, 0.0, 0.0, 0.0, 0.0, 0.0, 0.0, 0.0, 0.0)"
1677800876.0211837,6783,1677800875,988814592,imu1_frame,"$VNYMR,-169.230,+044.611,-012.893,-00.1933,+00.0460,+00.4446,+01.277,+03.142,-13.824,+02.008192,-01.857378,+01.316178*6F",0,0,0,,0.3657322986777844,0.13880996898219078,-0.9112669787147555,0.1287018714670019,"(0.0, 0.0, 0.0, 0.0, 0.0, 0.0, 0.0, 0.0, 0.0)",2.008192,-1.857378,1.316178,"(0.0, 0.0, 0.0, 0.0, 0.0, 0.0, 0.0, 0.0, 0.0)",1.277,3.142,-13.824,"(0.0, 0.0, 0.0, 0.0, 0.0, 0.0, 0.0, 0.0, 0.0)",0,0,0,,-0.1933,0.046,0.4446,"(0.0, 0.0, 0.0, 0.0, 0.0, 0.0, 0.0, 0.0, 0.0)"
1677800876.0212097,6784,1677800876,14163255,imu1_frame,"$VNYMR,-166.825,+042.264,-008.948,-00.1717,+00.0649,+00.4512,+03.075,+03.087,-13.654,+01.086240,-01.978528,+00.622818*6A",0,0,0,,0.34869913735077285,0.11351328148559094,-0.9205443822439033,0.13461681490954325,"(0.0, 0.0, 0.0, 0.0, 0.0, 0.0, 0.0, 0.0, 0.0)",1.08624,-1.978528,0.622818,"(0.0, 0.0, 0.0, 0.0, 0.0, 0.0, 0.0, 0.0, 0.0)",3.075,3.087,-13.654,"(0.0, 0.0, 0.0, 0.0, 0.0, 0.0, 0.0, 0.0, 0.0)",0,0,0,,-0.1717,0.0649,0.4512,"(0.0, 0.0, 0.0, 0.0, 0.0, 0.0, 0.0, 0.0, 0.0)"
1677800876.0668766,6785,1677800876,39535284,imu1_frame,"$VNYMR,-165.054,+039.743,-006.755,-00.1501,+00.0766,+00.4488,+06.040,+05.640,-13.192,+00.449627,-01.886561,+01.027304*63",0,0,0,,0.32923316579032325,0.09906762346365011,-0.9282451406518825,0.14195804796175862,"(0.0, 0.0, 0.0, 0.0, 0.0, 0.0, 0.0, 0.0, 0.0)",0.449627,-1.886561,1.027304,"(0.0, 0.0, 0.0, 0.0, 0.0, 0.0, 0.0, 0.0, 0.0)",6.04,5.64,-13.192,"(0.0, 0.0, 0.0, 0.0, 0.0, 0.0, 0.0, 0.0, 0.0)",0,0,0,,-0.1501,0.0766,0.4488,"(0.0, 0.0, 0.0, 0.0, 0.0, 0.0, 0.0, 0.0, 0.0)"
1677800876.067392,6786,1677800876,64956665,imu1_frame,"$VNYMR,-162.656,+037.271,-004.690,-00.1333,+00.0896,+00.4693,+06.610,+04.738,-12.724,+00.189999,-01.892963,+01.428058*60",0,0,0,,0.3097829324383545,0.08646821554521403,-0.9339818475037955,0.15567816482640515,"(0.0, 0.0, 0.0, 0.0, 0.0, 0.0, 0.0, 0.0, 0.0)",0.189999,-1.892963,1.428058,"(0.0, 0.0, 0.0, 0.0, 0.0, 0.0, 0.0, 0.0, 0.0)",6.61,4.738,-12.724,"(0.0, 0.0, 0.0, 0.0, 0.0, 0.0, 0.0, 0.0, 0.0)",0,0,0,,-0.1333,0.0896,0.4693,"(0.0, 0.0, 0.0, 0.0, 0.0, 0.0, 0.0, 0.0, 0.0)"
1677800876.1128101,6787,1677800876,88508367,imu1_frame,"$VNYMR,-159.403,+033.992,-003.029,-00.0992,+00.1013,+00.4705,+04.916,+02.437,-14.065,-00.429972,-02.546866,+01.806844*6E",0,0,0,,0.2829766760562524,0.07710739997326196,-0.9392086494452285,0.1785098386218194,"(0.0, 0.0, 0.0, 0.0, 0.0, 0.0, 0.0, 0.0, 0.0)",-0.429972,-2.546866,1.806844,"(0.0, 0.0, 0.0, 0.0, 0.0, 0.0, 0.0, 0.0, 0.0)",4.916,2.437,-14.065,"(0.0, 0.0, 0.0, 0.0, 0.0, 0.0, 0.0, 0.0, 0.0)",0,0,0,,-0.0992,0.1013,0.4705,"(0.0, 0.0, 0.0, 0.0, 0.0, 0.0, 0.0, 0.0, 0.0)"
1677800876.1569345,6788,1677800876,113857746,imu1_frame,"$VNYMR,-156.536,+030.634,-002.757,-00.0686,+00.0840,+00.4966,+04.682,+02.536,-16.345,-01.098969,-02.174443,+01.397284*68",0,0,0,,0.2538480657641725,0.07641485099664028,-0.942765069356727,0.20227692418008353,"(0.0, 0.0, 0.0, 0.0, 0.0, 0.0, 0.0, 0.0, 0.0)",-1.098969,-2.174443,1.397284,"(0.0, 0.0, 0.0, 0.0, 0.0, 0.0, 0.0, 0.0, 0.0)",4.682,2.536,-16.345,"(0.0, 0.0, 0.0, 0.0, 0.0, 0.0, 0.0, 0.0, 0.0)",0,0,0,,-0.0686,0.084,0.4966,"(0.0, 0.0, 0.0, 0.0, 0.0, 0.0, 0.0, 0.0, 0.0)"
1677800876.1569564,6789,1677800876,139396667,imu1_frame,"$VNYMR,-154.346,+028.216,-003.534,-00.0492,+00.0755,+00.4852,+08.400,+05.905,-17.570,-01.259345,-01.326702,+00.941491*6D",0,0,0,,0.2309154284800196,0.0832475601137785,-0.9435172428176347,0.222537909423991,"(0.0, 0.0, 0.0, 0.0, 0.0, 0.0, 0.0, 0.0, 0.0)",-1.259345,-1.326702,0.941491,"(0.0, 0.0, 0.0, 0.0, 0.0, 0.0, 0.0, 0.0, 0.0)",8.4,5.905,-17.57,"(0.0, 0.0, 0.0, 0.0, 0.0, 0.0, 0.0, 0.0, 0.0)",0,0,0,,-0.0492,0.0755,0.4852,"(0.0, 0.0, 0.0, 0.0, 0.0, 0.0, 0.0, 0.0, 0.0)"
1677800876.2020125,6790,1677800876,164700269,imu1_frame,"$VNYMR,-150.445,+026.662,-004.321,-00.0300,+00.0636,+00.4984,+09.042,+05.349,-14.022,-02.027029,-01.443927,+03.106445*6E",0,0,0,,0.21343452448955252,0.09424010397329277,-0.9379831788202094,0.25642165043021775,"(0.0, 0.0, 0.0, 0.0, 0.0, 0.0, 0.0, 0.0, 0.0)",-2.027029,-1.443927,3.106445,"(0.0, 0.0, 0.0, 0.0, 0.0, 0.0, 0.0, 0.0, 0.0)",9.042,5.349,-14.022,"(0.0, 0.0, 0.0, 0.0, 0.0, 0.0, 0.0, 0.0, 0.0)",0,0,0,,-0.03,0.0636,0.4984,"(0.0, 0.0, 0.0, 0.0, 0.0, 0.0, 0.0, 0.0, 0.0)"
1677800876.2020495,6791,1677800876,190047740,imu1_frame,"$VNYMR,-144.292,+024.398,-004.909,-00.0051,+00.0540,+00.5107,+07.627,+02.019,-14.095,-02.344137,-02.084430,+03.879414*6E",0,0,0,,0.18811316012379997,0.10456901947849068,-0.926719844535571,0.3080082610864709,"(0.0, 0.0, 0.0, 0.0, 0.0, 0.0, 0.0, 0.0, 0.0)",-2.344137,-2.08443,3.879414,"(0.0, 0.0, 0.0, 0.0, 0.0, 0.0, 0.0, 0.0, 0.0)",7.627,2.019,-14.095,"(0.0, 0.0, 0.0, 0.0, 0.0, 0.0, 0.0, 0.0, 0.0)",0,0,0,,-0.0051,0.054,0.5107,"(0.0, 0.0, 0.0, 0.0, 0.0, 0.0, 0.0, 0.0, 0.0)"
1677800876.2446158,6792,1677800876,213548660,imu1_frame,"$VNYMR,-138.101,+021.753,-006.136,+00.0248,+00.0327,+00.5028,+07.239,+01.625,-14.870,-02.619305,-02.211948,+03.693969*66",0,0,0,,0.15717430162617277,0.11645468160521436,-0.912194242510979,0.36005028811316653,"(0.0, 0.0, 0.0, 0.0, 0.0, 0.0, 0.0, 0.0, 0.0)",-2.619305,-2.211948,3.693969,"(0.0, 0.0, 0.0, 0.0, 0.0, 0.0, 0.0, 0.0, 0.0)",7.239,1.625,-14.87,"(0.0, 0.0, 0.0, 0.0, 0.0, 0.0, 0.0, 0.0, 0.0)",0,0,0,,0.0248,0.0327,0.5028,"(0.0, 0.0, 0.0, 0.0, 0.0, 0.0, 0.0, 0.0, 0.0)"
1677800876.2446287,6793,1677800876,238940954,imu1_frame,"$VNYMR,-131.650,+019.457,-007.682,+00.0429,+00.0018,+00.5083,+07.428,+03.881,-14.706,-02.625318,-02.020917,+04.350220*6E",0,0,0,,0.12677497042358582,0.12928010757543235,-0.8925242079709585,0.41305604806756735,"(0.0, 0.0, 0.0, 0.0, 0.0, 0.0, 0.0, 0.0, 0.0)",-2.625318,-2.020917,4.35022,"(0.0, 0.0, 0.0, 0.0, 0.0, 0.0, 0.0, 0.0, 0.0)",7.428,3.881,-14.706,"(0.0, 0.0, 0.0, 0.0, 0.0, 0.0, 0.0, 0.0, 0.0)",0,0,0,,0.0429,0.0018,0.5083,"(0.0, 0.0, 0.0, 0.0, 0.0, 0.0, 0.0, 0.0, 0.0)"
1677800876.2905831,6794,1677800876,264287471,imu1_frame,"$VNYMR,-124.427,+017.731,-009.376,+00.0647,-00.0113,+00.5092,+06.855,+02.533,-14.814,-02.898443,-01.753402,+04.509073*6B",0,0,0,,0.09824296337802019,0.1430466503906067,-0.8653250530234049,0.4702111531735228,"(0.0, 0.0, 0.0, 0.0, 0.0, 0.0, 0.0, 0.0, 0.0)",-2.898443,-1.753402,4.509073,"(0.0, 0.0, 0.0, 0.0, 0.0, 0.0, 0.0, 0.0, 0.0)",6.855,2.533,-14.814,"(0.0, 0.0, 0.0, 0.0, 0.0, 0.0, 0.0, 0.0, 0.0)",0,0,0,,0.0647,-0.0113,0.5092,"(0.0, 0.0, 0.0, 0.0, 0.0, 0.0, 0.0, 0.0, 0.0)"
1677800876.2920105,6795,1677800876,289726972,imu1_frame,"$VNYMR,-117.569,+016.590,-011.903,+00.0736,-00.0492,+00.5192,+06.979,+04.396,-14.314,-03.378348,-01.534009,+04.322654*60",0,0,0,,0.06954374831992452,0.16211362821588893,-0.833963098333977,0.5228655556005665,"(0.0, 0.0, 0.0, 0.0, 0.0, 0.0, 0.0, 0.0, 0.0)",-3.378348,-1.534009,4.322654,"(0.0, 0.0, 0.0, 0.0, 0.0, 0.0, 0.0, 0.0, 0.0)",6.979,4.396,-14.314,"(0.0, 0.0, 0.0, 0.0, 0.0, 0.0, 0.0, 0.0, 0.0)",0,0,0,,0.0736,-0.0492,0.5192,"(0.0, 0.0, 0.0, 0.0, 0.0, 0.0, 0.0, 0.0, 0.0)"
1677800876.3391962,6796,1677800876,315095186,imu1_frame,"$VNYMR,-110.469,+016.171,-015.053,+00.0827,-00.0871,+00.5138,+06.815,+04.587,-15.429,-03.700361,-01.259614,+04.784759*6C",0,0,0,,0.04060051496936373,0.18604405830934184,-0.795813978558627,0.5748211183339574,"(0.0, 0.0, 0.0, 0.0, 0.0, 0.0, 0.0, 0.0, 0.0)",-3.700361,-1.259614,4.784759,"(0.0, 0.0, 0.0, 0.0, 0.0, 0.0, 0.0, 0.0, 0.0)",6.815,4.587,-15.429,"(0.0, 0.0, 0.0, 0.0, 0.0, 0.0, 0.0, 0.0, 0.0)",0,0,0,,0.0827,-0.0871,0.5138,"(0.0, 0.0, 0.0, 0.0, 0.0, 0.0, 0.0, 0.0, 0.0)"
1677800876.3815255,6797,1677800876,338612794,imu1_frame,"$VNYMR,-102.840,+016.987,-018.262,+00.0795,-00.1213,+00.4991,+06.645,+03.680,-15.634,-03.834903,-00.658475,+05.250851*6C",0,0,0,,0.01612121206913336,0.21363308767246575,-0.7487507630176188,0.6272745055025626,"(0.0, 0.0, 0.0, 0.0, 0.0, 0.0, 0.0, 0.0, 0.0)",-3.834903,-0.658475,5.250851,"(0.0, 0.0, 0.0, 0.0, 0.0, 0.0, 0.0, 0.0, 0.0)",6.645,3.68,-15.634,"(0.0, 0.0, 0.0, 0.0, 0.0, 0.0, 0.0, 0.0, 0.0)",0,0,0,,0.0795,-0.1213,0.4991,"(0.0, 0.0, 0.0, 0.0, 0.0, 0.0, 0.0, 0.0, 0.0)"
1677800876.3815455,6798,1677800876,364045858,imu1_frame,"$VNYMR,-094.953,+018.625,-022.101,+00.0658,-00.1508,+00.5009,+07.252,+01.872,-19.318,-03.872479,-00.126683,+05.238268*6F",0,0,0,,-0.010794221514194291,0.24674648479739986,-0.6928380952012445,0.6774769596524596,"(0.0, 0.0, 0.0, 0.0, 0.0, 0.0, 0.0, 0.0, 0.0)",-3.872479,-0.126683,5.238268,"(0.0, 0.0, 0.0, 0.0, 0.0, 0.0, 0.0, 0.0, 0.0)",7.252,1.872,-19.318,"(0.0, 0.0, 0.0, 0.0, 0.0, 0.0, 0.0, 0.0, 0.0)",0,0,0,,0.0658,-0.1508,0.5009,"(0.0, 0.0, 0.0, 0.0, 0.0, 0.0, 0.0, 0.0, 0.0)"
1677800876.425362,6799,1677800876,389536619,imu1_frame,"$VNYMR,-087.943,+021.788,-025.133,+00.0389,-00.1919,+00.4807,+06.163,-00.159,-15.096,-03.916842,+00.111286,+05.014176*6E",0,0,0,,-0.025687689736490882,0.28109525210297276,-0.6358621413416468,0.7183348376972842,"(0.0, 0.0, 0.0, 0.0, 0.0, 0.0, 0.0, 0.0, 0.0)",-3.916842,0.111286,5.014176,"(0.0, 0.0, 0.0, 0.0, 0.0, 0.0, 0.0, 0.0, 0.0)",6.163,-0.159,-15.096,"(0.0, 0.0, 0.0, 0.0, 0.0, 0.0, 0.0, 0.0, 0.0)",0,0,0,,0.0389,-0.1919,0.4807,"(0.0, 0.0, 0.0, 0.0, 0.0, 0.0, 0.0, 0.0, 0.0)"
1677800876.4253898,6800,1677800876,414793968,imu1_frame,"$VNYMR,-081.271,+025.193,-027.921,+00.0085,-00.2178,+00.4555,+05.739,-02.378,-15.392,-03.672099,+00.370874,+04.639149*61",0,0,0,,-0.04084175260480463,0.3139411816988235,-0.5768693120008741,0.7529904930006436,"(0.0, 0.0, 0.0, 0.0, 0.0, 0.0, 0.0, 0.0, 0.0)",-3.672099,0.370874,4.639149,"(0.0, 0.0, 0.0, 0.0, 0.0, 0.0, 0.0, 0.0, 0.0)",5.739,-2.378,-15.392,"(0.0, 0.0, 0.0, 0.0, 0.0, 0.0, 0.0, 0.0, 0.0)",0,0,0,,0.0085,-0.2178,0.4555,"(0.0, 0.0, 0.0, 0.0, 0.0, 0.0, 0.0, 0.0, 0.0)"
1677800876.470483,6801,1677800876,440288543,imu1_frame,"$VNYMR,-075.708,+028.556,-030.365,-00.0173,-00.2294,+00.4521,+06.483,-01.690,-13.354,-03.315641,+00.279895,+03.927608*69",0,0,0,,-0.05433772181672472,0.3436817488628139,-0.5229401929490799,0.7781155583104253,"(0.0, 0.0, 0.0, 0.0, 0.0, 0.0, 0.0, 0.0, 0.0)",-3.315641,0.279895,3.927608,"(0.0, 0.0, 0.0, 0.0, 0.0, 0.0, 0.0, 0.0, 0.0)",6.483,-1.69,-13.354,"(0.0, 0.0, 0.0, 0.0, 0.0, 0.0, 0.0, 0.0, 0.0)",0,0,0,,-0.0173,-0.2294,0.4521,"(0.0, 0.0, 0.0, 0.0, 0.0, 0.0, 0.0, 0.0, 0.0)"
1677800876.4705095,6802,1677800876,463694334,imu1_frame,"$VNYMR,-070.411,+031.715,-032.090,-00.0466,-00.2600,+00.4348,+05.365,-01.473,-11.896,-02.892627,+00.188048,+03.928450*64",0,0,0,,-0.06585025711383971,0.3678480808503968,-0.4712587790467835,0.7989159506631821,"(0.0, 0.0, 0.0, 0.0, 0.0, 0.0, 0.0, 0.0, 0.0)",-2.892627,0.188048,3.92845,"(0.0, 0.0, 0.0, 0.0, 0.0, 0.0, 0.0, 0.0, 0.0)",5.365,-1.473,-11.896,"(0.0, 0.0, 0.0, 0.0, 0.0, 0.0, 0.0, 0.0, 0.0)",0,0,0,,-0.0466,-0.26,0.4348,"(0.0, 0.0, 0.0, 0.0, 0.0, 0.0, 0.0, 0.0, 0.0)"
1677800876.5126362,6803,1677800876,489217758,imu1_frame,"$VNYMR,-064.336,+034.364,-032.424,-00.0794,-00.2622,+00.4272,+04.296,-05.037,-08.887,-02.329447,-00.918301,+04.002960*63",0,0,0,,-0.07476413726417577,0.38212565512185703,-0.4186021704972722,0.8204648257736632,"(0.0, 0.0, 0.0, 0.0, 0.0, 0.0, 0.0, 0.0, 0.0)",-2.329447,-0.918301,4.00296,"(0.0, 0.0, 0.0, 0.0, 0.0, 0.0, 0.0, 0.0, 0.0)",4.296,-5.037,-8.887,"(0.0, 0.0, 0.0, 0.0, 0.0, 0.0, 0.0, 0.0, 0.0)",0,0,0,,-0.0794,-0.2622,0.4272,"(0.0, 0.0, 0.0, 0.0, 0.0, 0.0, 0.0, 0.0, 0.0)"
1677800876.5168285,6804,1677800876,514430522,imu1_frame,"$VNYMR,-057.752,+035.478,-031.418,-00.0889,-00.2523,+00.4102,+05.019,-08.084,-12.687,-01.331227,-01.233145,+03.192807*67",0,0,0,,-0.08417593025054415,0.38136788842098884,-0.37053899914230304,0.8427181002935633,"(0.0, 0.0, 0.0, 0.0, 0.0, 0.0, 0.0, 0.0, 0.0)",-1.331227,-1.233145,3.192807,"(0.0, 0.0, 0.0, 0.0, 0.0, 0.0, 0.0, 0.0, 0.0)",5.019,-8.084,-12.687,"(0.0, 0.0, 0.0, 0.0, 0.0, 0.0, 0.0, 0.0, 0.0)",0,0,0,,-0.0889,-0.2523,0.4102,"(0.0, 0.0, 0.0, 0.0, 0.0, 0.0, 0.0, 0.0, 0.0)"
1677800876.5623162,6805,1677800876,539847135,imu1_frame,"$VNYMR,-053.159,+036.156,-029.405,-00.1026,-00.2451,+00.4245,+03.904,-11.620,-10.626,-00.355282,-00.788639,+01.930863*67",0,0,0,,-0.08147316915494501,0.37638340447652474,-0.3409902728316447,0.857568241819105,"(0.0, 0.0, 0.0, 0.0, 0.0, 0.0, 0.0, 0.0, 0.0)",-0.355282,-0.788639,1.930863,"(0.0, 0.0, 0.0, 0.0, 0.0, 0.0, 0.0, 0.0, 0.0)",3.904,-11.62,-10.626,"(0.0, 0.0, 0.0, 0.0, 0.0, 0.0, 0.0, 0.0, 0.0)",0,0,0,,-0.1026,-0.2451,0.4245,"(0.0, 0.0, 0.0, 0.0, 0.0, 0.0, 0.0, 0.0, 0.0)"
1677800876.6047006,6806,1677800876,563375711,imu1_frame,"$VNYMR,-051.265,+036.428,-028.762,-00.1095,-00.2498,+00.4292,+06.790,-12.570,-15.104,-00.229391,+00.138707,+00.460889*63",0,0,0,,-0.08172766024093367,0.3750364351829006,-0.328054338080554,0.8631619854369017,"(0.0, 0.0, 0.0, 0.0, 0.0, 0.0, 0.0, 0.0, 0.0)",-0.229391,0.138707,0.460889,"(0.0, 0.0, 0.0, 0.0, 0.0, 0.0, 0.0, 0.0, 0.0)",6.79,-12.57,-15.104,"(0.0, 0.0, 0.0, 0.0, 0.0, 0.0, 0.0, 0.0, 0.0)",0,0,0,,-0.1095,-0.2498,0.4292,"(0.0, 0.0, 0.0, 0.0, 0.0, 0.0, 0.0, 0.0, 0.0)"
1677800876.6047277,6807,1677800876,588878870,imu1_frame,"$VNYMR,-052.565,+037.640,-029.173,-00.1139,-00.2593,+00.4122,+07.636,-11.049,-14.803,+00.544394,+01.440217,-00.628571*65",0,0,0,,-0.07549344744217065,0.3854765790192553,-0.3327706993775478,0.8573052012303938,"(0.0, 0.0, 0.0, 0.0, 0.0, 0.0, 0.0, 0.0, 0.0)",0.544394,1.440217,-0.628571,"(0.0, 0.0, 0.0, 0.0, 0.0, 0.0, 0.0, 0.0, 0.0)",7.636,-11.049,-14.803,"(0.0, 0.0, 0.0, 0.0, 0.0, 0.0, 0.0, 0.0, 0.0)",0,0,0,,-0.1139,-0.2593,0.4122,"(0.0, 0.0, 0.0, 0.0, 0.0, 0.0, 0.0, 0.0, 0.0)"
1677800876.6494071,6808,1677800876,614149093,imu1_frame,"$VNYMR,-055.462,+039.234,-030.093,-00.1276,-00.2532,+00.4240,+06.318,-10.101,-11.848,+00.743862,+01.647031,-01.034543*6F",0,0,0,,-0.06558148235764044,0.4007686088444879,-0.3461393463749537,0.8457370420099548,"(0.0, 0.0, 0.0, 0.0, 0.0, 0.0, 0.0, 0.0, 0.0)",0.743862,1.647031,-1.034543,"(0.0, 0.0, 0.0, 0.0, 0.0, 0.0, 0.0, 0.0, 0.0)",6.318,-10.101,-11.848,"(0.0, 0.0, 0.0, 0.0, 0.0, 0.0, 0.0, 0.0, 0.0)",0,0,0,,-0.1276,-0.2532,0.424,"(0.0, 0.0, 0.0, 0.0, 0.0, 0.0, 0.0, 0.0, 0.0)"
1677800876.649435,6809,1677800876,639549255,imu1_frame,"$VNYMR,-059.082,+040.237,-030.750,-00.1365,-00.2497,+00.4104,+07.269,-05.739,-13.221,+01.537814,+01.636938,-01.315118*67",0,0,0,,-0.05307378622930811,0.4112866978041889,-0.3670518401777064,0.8326460064437773,"(0.0, 0.0, 0.0, 0.0, 0.0, 0.0, 0.0, 0.0, 0.0)",1.537814,1.636938,-1.315118,"(0.0, 0.0, 0.0, 0.0, 0.0, 0.0, 0.0, 0.0, 0.0)",7.269,-5.739,-13.221,"(0.0, 0.0, 0.0, 0.0, 0.0, 0.0, 0.0, 0.0, 0.0)",0,0,0,,-0.1365,-0.2497,0.4104,"(0.0, 0.0, 0.0, 0.0, 0.0, 0.0, 0.0, 0.0, 0.0)"
1677800876.6934392,6810,1677800876,665019989,imu1_frame,"$VNYMR,-062.364,+041.775,-029.635,-00.1457,-00.2460,+00.4239,+05.152,-05.075,-11.386,+02.672625,+02.023350,-00.673588*66",0,0,0,,-0.025955005630494882,0.4185913299257982,-0.38963869579628496,0.819932511205552,"(0.0, 0.0, 0.0, 0.0, 0.0, 0.0, 0.0, 0.0, 0.0)",2.672625,2.02335,-0.673588,"(0.0, 0.0, 0.0, 0.0, 0.0, 0.0, 0.0, 0.0, 0.0)",5.152,-5.075,-11.386,"(0.0, 0.0, 0.0, 0.0, 0.0, 0.0, 0.0, 0.0, 0.0)",0,0,0,,-0.1457,-0.246,0.4239,"(0.0, 0.0, 0.0, 0.0, 0.0, 0.0, 0.0, 0.0, 0.0)"
1677800876.6934605,6811,1677800876,688476324,imu1_frame,"$VNYMR,-064.940,+043.854,-026.574,-00.1593,-00.2330,+00.4215,+03.963,-04.451,-08.064,+03.646118,+01.714100,-00.368042*62",0,0,0,,0.015235922505970945,0.4210747464295564,-0.4122830706790297,0.807766423055667,"(0.0, 0.0, 0.0, 0.0, 0.0, 0.0, 0.0, 0.0, 0.0)",3.646118,1.7141,-0.368042,"(0.0, 0.0, 0.0, 0.0, 0.0, 0.0, 0.0, 0.0, 0.0)",3.963,-4.451,-8.064,"(0.0, 0.0, 0.0, 0.0, 0.0, 0.0, 0.0, 0.0, 0.0)",0,0,0,,-0.1593,-0.233,0.4215,"(0.0, 0.0, 0.0, 0.0, 0.0, 0.0, 0.0, 0.0, 0.0)"
1677800876.737289,6812,1677800876,713780164,imu1_frame,"$VNYMR,-066.982,+045.781,-022.677,-00.1741,-00.2056,+00.4317,+02.575,-03.204,-06.757,+03.773160,+01.769427,-00.380767*60",0,0,0,,0.059396458547046754,0.41800447909453436,-0.4346526557889957,0.7955007133777748,"(0.0, 0.0, 0.0, 0.0, 0.0, 0.0, 0.0, 0.0, 0.0)",3.77316,1.769427,-0.380767,"(0.0, 0.0, 0.0, 0.0, 0.0, 0.0, 0.0, 0.0, 0.0)",2.575,-3.204,-6.757,"(0.0, 0.0, 0.0, 0.0, 0.0, 0.0, 0.0, 0.0, 0.0)",0,0,0,,-0.1741,-0.2056,0.4317,"(0.0, 0.0, 0.0, 0.0, 0.0, 0.0, 0.0, 0.0, 0.0)"
1677800876.7411423,6813,1677800876,739168167,imu1_frame,"$VNYMR,-069.162,+048.394,-018.698,-00.1930,-00.1663,+00.4501,+01.023,-03.908,-02.830,+03.730414,+02.140412,-00.469036*64",0,0,0,,0.10754678661908111,0.41707795578180035,-0.4560086069792268,0.7788040946538798,"(0.0, 0.0, 0.0, 0.0, 0.0, 0.0, 0.0, 0.0, 0.0)",3.730414,2.140412,-0.469036,"(0.0, 0.0, 0.0, 0.0, 0.0, 0.0, 0.0, 0.0, 0.0)",1.023,-3.908,-2.83,"(0.0, 0.0, 0.0, 0.0, 0.0, 0.0, 0.0, 0.0, 0.0)",0,0,0,,-0.193,-0.1663,0.4501,"(0.0, 0.0, 0.0, 0.0, 0.0, 0.0, 0.0, 0.0, 0.0)"
1677800876.7890005,6814,1677800876,764673948,imu1_frame,"$VNYMR,-071.746,+050.753,-015.817,-00.2053,-00.1439,+00.4310,+00.591,-03.349,-01.649,+03.196149,+01.811889,-00.718104*68",0,0,0,,0.14801125512027136,0.41681832910410427,-0.4766315683954932,0.7597219865776143,"(0.0, 0.0, 0.0, 0.0, 0.0, 0.0, 0.0, 0.0, 0.0)",3.196149,1.811889,-0.718104,"(0.0, 0.0, 0.0, 0.0, 0.0, 0.0, 0.0, 0.0, 0.0)",0.591,-3.349,-1.649,"(0.0, 0.0, 0.0, 0.0, 0.0, 0.0, 0.0, 0.0, 0.0)",0,0,0,,-0.2053,-0.1439,0.431,"(0.0, 0.0, 0.0, 0.0, 0.0, 0.0, 0.0, 0.0, 0.0)"
1677800876.8327005,6815,1677800876,789945125,imu1_frame,"$VNYMR,-074.666,+052.371,-013.379,-00.2132,-00.1237,+00.4340,-00.131,-04.328,-00.193,+03.427233,+01.091430,-01.125248*62",0,0,0,,0.18267292078538339,0.41187672301588796,-0.49962937899807913,0.7398369095222436,"(0.0, 0.0, 0.0, 0.0, 0.0, 0.0, 0.0, 0.0, 0.0)",3.427233,1.09143,-1.125248,"(0.0, 0.0, 0.0, 0.0, 0.0, 0.0, 0.0, 0.0, 0.0)",-0.131,-4.328,-0.193,"(0.0, 0.0, 0.0, 0.0, 0.0, 0.0, 0.0, 0.0, 0.0)",0,0,0,,-0.2132,-0.1237,0.434,"(0.0, 0.0, 0.0, 0.0, 0.0, 0.0, 0.0, 0.0, 0.0)"
1677800876.832726,6816,1677800876,813422441,imu1_frame,"$VNYMR,-078.291,+052.745,-011.393,-00.2106,-00.1023,+00.4398,+00.415,-01.665,-01.224,+03.271835,+00.354674,-01.624781*66",0,0,0,,0.2100701614050851,0.3989399078956221,-0.5286022937875183,0.7192336839845922,"(0.0, 0.0, 0.0, 0.0, 0.0, 0.0, 0.0, 0.0, 0.0)",3.271835,0.354674,-1.624781,"(0.0, 0.0, 0.0, 0.0, 0.0, 0.0, 0.0, 0.0, 0.0)",0.415,-1.665,-1.224,"(0.0, 0.0, 0.0, 0.0, 0.0, 0.0, 0.0, 0.0, 0.0)",0,0,0,,-0.2106,-0.1023,0.4398,"(0.0, 0.0, 0.0, 0.0, 0.0, 0.0, 0.0, 0.0, 0.0)"
1677800876.876875,6817,1677800876,838872909,imu1_frame,"$VNYMR,-082.102,+052.532,-010.243,-00.2096,-00.0963,+00.4527,+00.845,-00.412,-01.681,+02.668678,-00.043777,-01.570193*6E",0,0,0,,0.22910014296877987,0.38496955816520045,-0.5567799775466252,0.6995052683010718,"(0.0, 0.0, 0.0, 0.0, 0.0, 0.0, 0.0, 0.0, 0.0)",2.668678,-0.043777,-1.570193,"(0.0, 0.0, 0.0, 0.0, 0.0, 0.0, 0.0, 0.0, 0.0)",0.845,-0.412,-1.681,"(0.0, 0.0, 0.0, 0.0, 0.0, 0.0, 0.0, 0.0, 0.0)",0,0,0,,-0.2096,-0.0963,0.4527,"(0.0, 0.0, 0.0, 0.0, 0.0, 0.0, 0.0, 0.0, 0.0)"
1677800876.876898,6818,1677800876,864484548,imu1_frame,"$VNYMR,-085.778,+051.703,-009.744,-00.2017,-00.0928,+00.4584,+00.727,+00.106,-02.420,+02.188716,-00.459102,-01.656064*66",0,0,0,,0.23968925072222863,0.370338127257432,-0.5831267159414629,0.6821744408455942,"(0.0, 0.0, 0.0, 0.0, 0.0, 0.0, 0.0, 0.0, 0.0)",2.188716,-0.459102,-1.656064,"(0.0, 0.0, 0.0, 0.0, 0.0, 0.0, 0.0, 0.0, 0.0)",0.727,0.106,-2.42,"(0.0, 0.0, 0.0, 0.0, 0.0, 0.0, 0.0, 0.0, 0.0)",0,0,0,,-0.2017,-0.0928,0.4584,"(0.0, 0.0, 0.0, 0.0, 0.0, 0.0, 0.0, 0.0, 0.0)"
1677800876.9209285,6819,1677800876,889683008,imu1_frame,"$VNYMR,-089.440,+050.845,-009.067,-00.1904,-00.0775,+00.4630,+01.253,+01.060,-02.200,+02.454588,-00.439457,-01.631488*6C",0,0,0,,0.25039653818945795,0.35431091239242724,-0.6094080110829847,0.6636167772519483,"(0.0, 0.0, 0.0, 0.0, 0.0, 0.0, 0.0, 0.0, 0.0)",2.454588,-0.439457,-1.631488,"(0.0, 0.0, 0.0, 0.0, 0.0, 0.0, 0.0, 0.0, 0.0)",1.253,1.06,-2.2,"(0.0, 0.0, 0.0, 0.0, 0.0, 0.0, 0.0, 0.0, 0.0)",0,0,0,,-0.1904,-0.0775,0.463,"(0.0, 0.0, 0.0, 0.0, 0.0, 0.0, 0.0, 0.0, 0.0)"
1677800876.9209523,6820,1677800876,915064811,imu1_frame,"$VNYMR,-092.188,+049.792,-008.116,-00.1826,-00.0645,+00.4711,+01.422,+01.719,-04.144,+01.849225,-00.568692,-01.194645*67",0,0,0,,0.25802678328331513,0.33745060928035314,-0.6312293027058418,0.648921283986186,"(0.0, 0.0, 0.0, 0.0, 0.0, 0.0, 0.0, 0.0, 0.0)",1.849225,-0.568692,-1.194645,"(0.0, 0.0, 0.0, 0.0, 0.0, 0.0, 0.0, 0.0, 0.0)",1.422,1.719,-4.144,"(0.0, 0.0, 0.0, 0.0, 0.0, 0.0, 0.0, 0.0, 0.0)",0,0,0,,-0.1826,-0.0645,0.4711,"(0.0, 0.0, 0.0, 0.0, 0.0, 0.0, 0.0, 0.0, 0.0)"
1677800876.9668279,6821,1677800876,939480543,imu1_frame,"$VNYMR,-094.699,+048.672,-007.175,-00.1665,-00.0560,+00.4844,+00.482,+01.495,-04.514,+01.822874,-00.911454,-01.254588*69",0,0,0,,0.2638684864673199,0.32058483363922646,-0.6513635200788038,0.6350782243161114,"(0.0, 0.0, 0.0, 0.0, 0.0, 0.0, 0.0, 0.0, 0.0)",1.822874,-0.911454,-1.254588,"(0.0, 0.0, 0.0, 0.0, 0.0, 0.0, 0.0, 0.0, 0.0)",0.482,1.495,-4.514,"(0.0, 0.0, 0.0, 0.0, 0.0, 0.0, 0.0, 0.0, 0.0)",0,0,0,,-0.1665,-0.056,0.4844,"(0.0, 0.0, 0.0, 0.0, 0.0, 0.0, 0.0, 0.0, 0.0)"
1677800876.9674706,6822,1677800876,964884281,imu1_frame,"$VNYMR,-097.712,+048.213,-008.355,-00.1619,-00.0620,+00.4771,+00.380,+00.582,-08.067,+01.626421,-00.338829,-01.784394*6D",0,0,0,,0.26300785639329644,0.3180901585611392,-0.6659801357746467,0.6213823116693424,"(0.0, 0.0, 0.0, 0.0, 0.0, 0.0, 0.0, 0.0, 0.0)",1.626421,-0.338829,-1.784394,"(0.0, 0.0, 0.0, 0.0, 0.0, 0.0, 0.0, 0.0, 0.0)",0.38,0.582,-8.067,"(0.0, 0.0, 0.0, 0.0, 0.0, 0.0, 0.0, 0.0, 0.0)",0,0,0,,-0.1619,-0.062,0.4771,"(0.0, 0.0, 0.0, 0.0, 0.0, 0.0, 0.0, 0.0, 0.0)"
1677800877.01266,6823,1677800876,988446235,imu1_frame,"$VNYMR,-102.657,+046.816,-008.499,-00.1507,-00.0420,+00.4893,+06.036,+02.913,-12.950,+03.103380,-00.379403,-02.906664*61",0,0,0,,0.26682618375782535,0.3006486486231182,-0.6961214092638346,0.5948354069041797,"(0.0, 0.0, 0.0, 0.0, 0.0, 0.0, 0.0, 0.0, 0.0)",3.10338,-0.379403,-2.906664,"(0.0, 0.0, 0.0, 0.0, 0.0, 0.0, 0.0, 0.0, 0.0)",6.036,2.913,-12.95,"(0.0, 0.0, 0.0, 0.0, 0.0, 0.0, 0.0, 0.0, 0.0)",0,0,0,,-0.1507,-0.042,0.4893,"(0.0, 0.0, 0.0, 0.0, 0.0, 0.0, 0.0, 0.0, 0.0)"
1677800877.0588877,6824,1677800877,13774633,imu1_frame,"$VNYMR,-108.925,+045.398,-007.685,-00.1383,-00.0338,+00.4927,+04.755,+02.596,-09.168,+03.906985,-00.887201,-03.388803*63",0,0,0,,0.27737238338676234,0.27409670378851314,-0.7339889275082649,0.5560537853498403,"(0.0, 0.0, 0.0, 0.0, 0.0, 0.0, 0.0, 0.0, 0.0)",3.906985,-0.887201,-3.388803,"(0.0, 0.0, 0.0, 0.0, 0.0, 0.0, 0.0, 0.0, 0.0)",4.755,2.596,-9.168,"(0.0, 0.0, 0.0, 0.0, 0.0, 0.0, 0.0, 0.0, 0.0)",0,0,0,,-0.1383,-0.0338,0.4927,"(0.0, 0.0, 0.0, 0.0, 0.0, 0.0, 0.0, 0.0, 0.0)"
1677800877.0589154,6825,1677800877,39170265,imu1_frame,"$VNYMR,-116.745,+042.495,-010.180,-00.1191,-00.0339,+00.5000,+04.540,+01.282,-12.835,+00.882293,-01.726811,-05.242782*67",0,0,0,,0.2639936256310883,0.25969795821928077,-0.7736053244571875,0.5141975671805336,"(0.0, 0.0, 0.0, 0.0, 0.0, 0.0, 0.0, 0.0, 0.0)",0.882293,-1.726811,-5.242782,"(0.0, 0.0, 0.0, 0.0, 0.0, 0.0, 0.0, 0.0, 0.0)",4.54,1.282,-12.835,"(0.0, 0.0, 0.0, 0.0, 0.0, 0.0, 0.0, 0.0, 0.0)",0,0,0,,-0.1191,-0.0339,0.5,"(0.0, 0.0, 0.0, 0.0, 0.0, 0.0, 0.0, 0.0, 0.0)"
1677800877.100783,6826,1677800877,64552307,imu1_frame,"$VNYMR,-127.989,+038.845,-018.016,-00.1022,-00.0551,+00.4963,+15.616,+03.508,-14.317,-01.498965,-01.762626,-08.131282*60",0,0,0,,0.23043373554757707,0.27671433903434095,-0.8143235648759806,0.45519951645630286,"(0.0, 0.0, 0.0, 0.0, 0.0, 0.0, 0.0, 0.0, 0.0)",-1.498965,-1.762626,-8.131282,"(0.0, 0.0, 0.0, 0.0, 0.0, 0.0, 0.0, 0.0, 0.0)",15.616,3.508,-14.317,"(0.0, 0.0, 0.0, 0.0, 0.0, 0.0, 0.0, 0.0, 0.0)",0,0,0,,-0.1022,-0.0551,0.4963,"(0.0, 0.0, 0.0, 0.0, 0.0, 0.0, 0.0, 0.0, 0.0)"
1677800877.100806,6827,1677800877,89938879,imu1_frame,"$VNYMR,-140.455,+033.156,-024.873,-00.0730,-00.0985,+00.5045,+03.251,+16.446,-01.828,-00.061524,-02.592011,-06.867415*63",0,0,0,,0.1923744026497043,0.28849168935232933,-0.8599764084491187,0.3744398633836454,"(0.0, 0.0, 0.0, 0.0, 0.0, 0.0, 0.0, 0.0, 0.0)",-0.061524,-2.592011,-6.867415,"(0.0, 0.0, 0.0, 0.0, 0.0, 0.0, 0.0, 0.0, 0.0)",3.251,16.446,-1.828,"(0.0, 0.0, 0.0, 0.0, 0.0, 0.0, 0.0, 0.0, 0.0)",0,0,0,,-0.073,-0.0985,0.5045,"(0.0, 0.0, 0.0, 0.0, 0.0, 0.0, 0.0, 0.0, 0.0)"
1677800877.1448085,6828,1677800877,113474130,imu1_frame,"$VNYMR,-147.251,+024.565,-032.778,-00.0138,-00.1584,+00.5171,+05.793,+27.504,-15.781,-04.641437,-03.268854,-04.546696*6E",0,0,0,,0.11808684890983313,0.3220518276867423,-0.882465464967311,0.3218583842906729,"(0.0, 0.0, 0.0, 0.0, 0.0, 0.0, 0.0, 0.0, 0.0)",-4.641437,-3.268854,-4.546696,"(0.0, 0.0, 0.0, 0.0, 0.0, 0.0, 0.0, 0.0, 0.0)",5.793,27.504,-15.781,"(0.0, 0.0, 0.0, 0.0, 0.0, 0.0, 0.0, 0.0, 0.0)",0,0,0,,-0.0138,-0.1584,0.5171,"(0.0, 0.0, 0.0, 0.0, 0.0, 0.0, 0.0, 0.0, 0.0)"
1677800877.144824,6829,1677800877,138863086,imu1_frame,"$VNYMR,-146.004,+022.774,-034.558,+00.0066,-00.1809,+00.4959,+04.923,+09.761,-03.519,-01.811789,-01.702117,+02.093187*62",0,0,0,,0.09516635262755638,0.333571115612754,-0.8780380149657323,0.32973158846471906,"(0.0, 0.0, 0.0, 0.0, 0.0, 0.0, 0.0, 0.0, 0.0)",-1.811789,-1.702117,2.093187,"(0.0, 0.0, 0.0, 0.0, 0.0, 0.0, 0.0, 0.0, 0.0)",4.923,9.761,-3.519,"(0.0, 0.0, 0.0, 0.0, 0.0, 0.0, 0.0, 0.0, 0.0)",0,0,0,,0.0066,-0.1809,0.4959,"(0.0, 0.0, 0.0, 0.0, 0.0, 0.0, 0.0, 0.0, 0.0)"
1677800877.192651,6830,1677800877,164361476,imu1_frame,"$VNYMR,-141.867,+021.400,-034.977,+00.0199,-00.1844,+00.5071,+02.145,+04.580,-05.061,-02.061969,-02.432382,+01.003332*65",0,0,0,,0.07090898198917492,0.33693711953159655,-0.8675529312626952,0.35888327519196944,"(0.0, 0.0, 0.0, 0.0, 0.0, 0.0, 0.0, 0.0, 0.0)",-2.061969,-2.432382,1.003332,"(0.0, 0.0, 0.0, 0.0, 0.0, 0.0, 0.0, 0.0, 0.0)",2.145,4.58,-5.061,"(0.0, 0.0, 0.0, 0.0, 0.0, 0.0, 0.0, 0.0, 0.0)",0,0,0,,0.0199,-0.1844,0.5071,"(0.0, 0.0, 0.0, 0.0, 0.0, 0.0, 0.0, 0.0, 0.0)"
1677800877.1926703,6831,1677800877,189709663,imu1_frame,"$VNYMR,-138.984,+019.558,-037.288,+00.0411,-00.1978,+00.4889,+02.089,+05.763,-04.767,-01.593062,-02.172747,+00.793566*6F",0,0,0,,0.04036441437078461,0.3514574822188667,-0.855554729039206,0.37798737791562453,"(0.0, 0.0, 0.0, 0.0, 0.0, 0.0, 0.0, 0.0, 0.0)",-1.593062,-2.172747,0.793566,"(0.0, 0.0, 0.0, 0.0, 0.0, 0.0, 0.0, 0.0, 0.0)",2.089,5.763,-4.767,"(0.0, 0.0, 0.0, 0.0, 0.0, 0.0, 0.0, 0.0, 0.0)",0,0,0,,0.0411,-0.1978,0.4889,"(0.0, 0.0, 0.0, 0.0, 0.0, 0.0, 0.0, 0.0, 0.0)"
1677800877.2368402,6832,1677800877,215288639,imu1_frame,"$VNYMR,-135.704,+017.337,-037.835,+00.0655,-00.2212,+00.4998,+01.944,+00.430,-09.136,-01.078863,-02.520905,+00.399852*6C",0,0,0,,0.011226564762643401,0.3506054245971244,-0.8477546813197794,0.3978213176629676,"(0.0, 0.0, 0.0, 0.0, 0.0, 0.0, 0.0, 0.0, 0.0)",-1.078863,-2.520905,0.399852,"(0.0, 0.0, 0.0, 0.0, 0.0, 0.0, 0.0, 0.0, 0.0)",1.944,0.43,-9.136,"(0.0, 0.0, 0.0, 0.0, 0.0, 0.0, 0.0, 0.0, 0.0)",0,0,0,,0.0655,-0.2212,0.4998,"(0.0, 0.0, 0.0, 0.0, 0.0, 0.0, 0.0, 0.0, 0.0)"
1677800877.2415237,6833,1677800877,238827228,imu1_frame,"$VNYMR,-135.212,+014.843,-039.057,+00.0847,-00.2260,+00.4772,+01.519,-00.482,-10.209,-00.737395,-00.946987,-01.819548*60",0,0,0,,-0.013726693519036381,0.35285621304409615,-0.8476499818888242,0.39597168965102764,"(0.0, 0.0, 0.0, 0.0, 0.0, 0.0, 0.0, 0.0, 0.0)",-0.737395,-0.946987,-1.819548,"(0.0, 0.0, 0.0, 0.0, 0.0, 0.0, 0.0, 0.0, 0.0)",1.519,-0.482,-10.209,"(0.0, 0.0, 0.0, 0.0, 0.0, 0.0, 0.0, 0.0, 0.0)",0,0,0,,0.0847,-0.226,0.4772,"(0.0, 0.0, 0.0, 0.0, 0.0, 0.0, 0.0, 0.0, 0.0)"
1677800877.285387,6834,1677800877,263984918,imu1_frame,"$VNYMR,-138.226,+012.532,-039.911,+00.1015,-00.2320,+00.4747,+00.637,+00.685,-08.230,+00.559575,+00.423794,-03.758198*6E",0,0,0,,-0.025102451902288755,0.35353397456248203,-0.8596620419170788,0.3679195148745256,"(0.0, 0.0, 0.0, 0.0, 0.0, 0.0, 0.0, 0.0, 0.0)",0.559575,0.423794,-3.758198,"(0.0, 0.0, 0.0, 0.0, 0.0, 0.0, 0.0, 0.0, 0.0)",0.637,0.685,-8.23,"(0.0, 0.0, 0.0, 0.0, 0.0, 0.0, 0.0, 0.0, 0.0)",0,0,0,,0.1015,-0.232,0.4747,"(0.0, 0.0, 0.0, 0.0, 0.0, 0.0, 0.0, 0.0, 0.0)"
1677800877.3342736,6835,1677800877,289350986,imu1_frame,"$VNYMR,-143.125,+009.280,-038.920,+00.1191,-00.2098,+00.5012,+02.864,+02.385,-18.239,+02.245554,+01.191946,-04.064633*65",0,0,0,,-0.03266118839792753,0.3391351631993887,-0.8830208377899575,0.3227921744449211,"(0.0, 0.0, 0.0, 0.0, 0.0, 0.0, 0.0, 0.0, 0.0)",2.245554,1.191946,-4.064633,"(0.0, 0.0, 0.0, 0.0, 0.0, 0.0, 0.0, 0.0, 0.0)",2.864,2.385,-18.239,"(0.0, 0.0, 0.0, 0.0, 0.0, 0.0, 0.0, 0.0, 0.0)",0,0,0,,0.1191,-0.2098,0.5012,"(0.0, 0.0, 0.0, 0.0, 0.0, 0.0, 0.0, 0.0, 0.0)"
1677800877.3342938,6836,1677800877,314836740,imu1_frame,"$VNYMR,-150.489,+008.635,-036.263,+00.1147,-00.1865,+00.4981,+01.314,+07.836,-12.692,+02.654457,+03.658339,-03.936603*65",0,0,0,,-0.009850183537344001,0.31830423905981076,-0.9104288616162358,0.2640164260363365,"(0.0, 0.0, 0.0, 0.0, 0.0, 0.0, 0.0, 0.0, 0.0)",2.654457,3.658339,-3.936603,"(0.0, 0.0, 0.0, 0.0, 0.0, 0.0, 0.0, 0.0, 0.0)",1.314,7.836,-12.692,"(0.0, 0.0, 0.0, 0.0, 0.0, 0.0, 0.0, 0.0, 0.0)",0,0,0,,0.1147,-0.1865,0.4981,"(0.0, 0.0, 0.0, 0.0, 0.0, 0.0, 0.0, 0.0, 0.0)"
1677800877.3824282,6837,1677800877,340124368,imu1_frame,"$VNYMR,-156.080,+011.465,-036.706,+00.0812,-00.1875,+00.4956,+01.509,+18.193,-07.732,-01.447566,+04.272122,-00.139814*60",0,0,0,,0.027821643139085597,0.3261410664763277,-0.9173703095728798,0.22647224122369508,"(0.0, 0.0, 0.0, 0.0, 0.0, 0.0, 0.0, 0.0, 0.0)",-1.447566,4.272122,-0.139814,"(0.0, 0.0, 0.0, 0.0, 0.0, 0.0, 0.0, 0.0, 0.0)",1.509,18.193,-7.732,"(0.0, 0.0, 0.0, 0.0, 0.0, 0.0, 0.0, 0.0, 0.0)",0,0,0,,0.0812,-0.1875,0.4956,"(0.0, 0.0, 0.0, 0.0, 0.0, 0.0, 0.0, 0.0, 0.0)"
1677800877.382457,6838,1677800877,363610506,imu1_frame,"$VNYMR,-159.412,+013.296,-037.694,+00.0589,-00.1854,+00.4924,+04.414,+07.063,-04.589,-00.374295,+00.925099,-01.759457*68",0,0,0,,0.05045954234472841,0.3352839240879165,-0.918207348591162,0.20477741532638963,"(0.0, 0.0, 0.0, 0.0, 0.0, 0.0, 0.0, 0.0, 0.0)",-0.374295,0.925099,-1.759457,"(0.0, 0.0, 0.0, 0.0, 0.0, 0.0, 0.0, 0.0, 0.0)",4.414,7.063,-4.589,"(0.0, 0.0, 0.0, 0.0, 0.0, 0.0, 0.0, 0.0, 0.0)",0,0,0,,0.0589,-0.1854,0.4924,"(0.0, 0.0, 0.0, 0.0, 0.0, 0.0, 0.0, 0.0, 0.0)"
1677800877.426126,6839,1677800877,389083385,imu1_frame,"$VNYMR,-162.493,+013.465,-038.731,+00.0488,-00.1934,+00.4968,+03.580,+08.686,-07.857,-00.003107,+01.823422,-01.602925*67",0,0,0,,0.05919789453345059,0.3423025825272583,-0.92008794545465,0.18100476211143463,"(0.0, 0.0, 0.0, 0.0, 0.0, 0.0, 0.0, 0.0, 0.0)",-0.003107,1.823422,-1.602925,"(0.0, 0.0, 0.0, 0.0, 0.0, 0.0, 0.0, 0.0, 0.0)",3.58,8.686,-7.857,"(0.0, 0.0, 0.0, 0.0, 0.0, 0.0, 0.0, 0.0, 0.0)",0,0,0,,0.0488,-0.1934,0.4968,"(0.0, 0.0, 0.0, 0.0, 0.0, 0.0, 0.0, 0.0, 0.0)"
1677800877.42615,6840,1677800877,414394617,imu1_frame,"$VNYMR,-165.873,+013.181,-039.131,+00.0477,-00.1888,+00.4979,+04.278,+10.267,-02.912,-00.023791,+00.717866,-02.107898*64",0,0,0,,0.06641627322348347,0.3434450270024319,-0.9242022151210482,0.15324704774888942,"(0.0, 0.0, 0.0, 0.0, 0.0, 0.0, 0.0, 0.0, 0.0)",-0.023791,0.717866,-2.107898,"(0.0, 0.0, 0.0, 0.0, 0.0, 0.0, 0.0, 0.0, 0.0)",4.278,10.267,-2.912,"(0.0, 0.0, 0.0, 0.0, 0.0, 0.0, 0.0, 0.0, 0.0)",0,0,0,,0.0477,-0.1888,0.4979,"(0.0, 0.0, 0.0, 0.0, 0.0, 0.0, 0.0, 0.0, 0.0)"
1677800877.4690812,6841,1677800877,439808845,imu1_frame,"$VNYMR,-166.850,+011.372,-041.548,+00.0556,-00.2110,+00.4810,+04.826,+12.770,-02.015,-02.154069,-01.704743,-00.491840*65",0,0,0,,0.051613373141592096,0.3612233611407777,-0.9202433447247548,0.14144231887558306,"(0.0, 0.0, 0.0, 0.0, 0.0, 0.0, 0.0, 0.0, 0.0)",-2.154069,-1.704743,-0.49184,"(0.0, 0.0, 0.0, 0.0, 0.0, 0.0, 0.0, 0.0, 0.0)",4.826,12.77,-2.015,"(0.0, 0.0, 0.0, 0.0, 0.0, 0.0, 0.0, 0.0, 0.0)",0,0,0,,0.0556,-0.211,0.481,"(0.0, 0.0, 0.0, 0.0, 0.0, 0.0, 0.0, 0.0, 0.0)"
1677800877.4691014,6842,1677800877,465167045,imu1_frame,"$VNYMR,-164.451,+008.063,-045.295,+00.0790,-00.2320,+00.4766,+00.974,+06.494,-03.197,-04.054698,-03.401219,-00.738042*6A",0,0,0,,0.012327352389267465,0.3893542130559897,-0.9084834578850965,0.15135765559680067,"(0.0, 0.0, 0.0, 0.0, 0.0, 0.0, 0.0, 0.0, 0.0)",-4.054698,-3.401219,-0.738042,"(0.0, 0.0, 0.0, 0.0, 0.0, 0.0, 0.0, 0.0, 0.0)",0.974,6.494,-3.197,"(0.0, 0.0, 0.0, 0.0, 0.0, 0.0, 0.0, 0.0, 0.0)",0,0,0,,0.079,-0.232,0.4766,"(0.0, 0.0, 0.0, 0.0, 0.0, 0.0, 0.0, 0.0, 0.0)"
1677800877.51309,6843,1677800877,492735147,imu1_frame,"$VNYMR,-160.663,+002.789,-043.217,+00.1324,-00.2288,+00.4793,-01.345,+11.212,-00.838,+05.233936,-05.115740,-01.183884*60",0,0,0,,-0.039525891637480104,0.36672411037410135,-0.914739441056421,0.16493297346611002,"(0.0, 0.0, 0.0, 0.0, 0.0, 0.0, 0.0, 0.0, 0.0)",5.233936,-5.11574,-1.183884,"(0.0, 0.0, 0.0, 0.0, 0.0, 0.0, 0.0, 0.0, 0.0)",-1.345,11.212,-0.838,"(0.0, 0.0, 0.0, 0.0, 0.0, 0.0, 0.0, 0.0, 0.0)",0,0,0,,0.1324,-0.2288,0.4793,"(0.0, 0.0, 0.0, 0.0, 0.0, 0.0, 0.0, 0.0, 0.0)"
1677800877.5166707,6844,1677800877,514121532,imu1_frame,"$VNYMR,-153.757,+003.147,-040.743,+00.1458,-00.2161,+00.4802,+02.023,+03.648,-06.388,+00.895705,-02.471584,+02.418539*6D",0,0,0,,-0.05392628165458157,0.3447330361455895,-0.9104648396912302,0.22204698967285486,"(0.0, 0.0, 0.0, 0.0, 0.0, 0.0, 0.0, 0.0, 0.0)",0.895705,-2.471584,2.418539,"(0.0, 0.0, 0.0, 0.0, 0.0, 0.0, 0.0, 0.0, 0.0)",2.023,3.648,-6.388,"(0.0, 0.0, 0.0, 0.0, 0.0, 0.0, 0.0, 0.0, 0.0)",0,0,0,,0.1458,-0.2161,0.4802,"(0.0, 0.0, 0.0, 0.0, 0.0, 0.0, 0.0, 0.0, 0.0)"
1677800877.5611017,6845,1677800877,539413928,imu1_frame,"$VNYMR,-151.376,+003.392,-036.935,+00.1490,-00.1847,+00.4966,+00.313,+13.650,-10.961,+03.184423,+00.357311,+01.732944*6B",0,0,0,,-0.051069948417434265,0.3137405878042666,-0.9163455362628183,0.24345340848729516,"(0.0, 0.0, 0.0, 0.0, 0.0, 0.0, 0.0, 0.0, 0.0)",3.184423,0.357311,1.732944,"(0.0, 0.0, 0.0, 0.0, 0.0, 0.0, 0.0, 0.0, 0.0)",0.313,13.65,-10.961,"(0.0, 0.0, 0.0, 0.0, 0.0, 0.0, 0.0, 0.0, 0.0)",0,0,0,,0.149,-0.1847,0.4966,"(0.0, 0.0, 0.0, 0.0, 0.0, 0.0, 0.0, 0.0, 0.0)"
1677800877.6048205,6846,1677800877,565043449,imu1_frame,"$VNYMR,-149.894,+007.545,-030.111,+00.1177,-00.1461,+00.5154,+00.083,+10.522,-09.474,+05.521487,+02.602209,+02.943799*6E",0,0,0,,-0.005958961652066955,0.2667990556816678,-0.9260792175500803,0.26675838784418854,"(0.0, 0.0, 0.0, 0.0, 0.0, 0.0, 0.0, 0.0, 0.0)",5.521487,2.602209,2.943799,"(0.0, 0.0, 0.0, 0.0, 0.0, 0.0, 0.0, 0.0, 0.0)",0.083,10.522,-9.474,"(0.0, 0.0, 0.0, 0.0, 0.0, 0.0, 0.0, 0.0, 0.0)",0,0,0,,0.1177,-0.1461,0.5154,"(0.0, 0.0, 0.0, 0.0, 0.0, 0.0, 0.0, 0.0, 0.0)"
1677800877.6048412,6847,1677800877,588391065,imu1_frame,"$VNYMR,-148.487,+014.139,-020.361,+00.0698,-00.0680,+00.5377,+02.105,-01.931,-08.839,+05.272646,+04.191355,+01.511000*63",0,0,0,,0.06895234524025337,0.20170937373483705,-0.9341632435601646,0.2861781560750602,"(0.0, 0.0, 0.0, 0.0, 0.0, 0.0, 0.0, 0.0, 0.0)",5.272646,4.191355,1.511,"(0.0, 0.0, 0.0, 0.0, 0.0, 0.0, 0.0, 0.0, 0.0)",2.105,-1.931,-8.839,"(0.0, 0.0, 0.0, 0.0, 0.0, 0.0, 0.0, 0.0, 0.0)",0,0,0,,0.0698,-0.068,0.5377,"(0.0, 0.0, 0.0, 0.0, 0.0, 0.0, 0.0, 0.0, 0.0)"
1677800877.648997,6848,1677800877,613846063,imu1_frame,"$VNYMR,-151.327,+020.511,-024.781,+00.0244,-00.0830,+00.5066,+04.191,+04.830,+01.089,-02.498475,+03.972831,-00.555384*64",0,0,0,,0.1161928301522991,0.2476281016974381,-0.9217136042060045,0.274997420519719,"(0.0, 0.0, 0.0, 0.0, 0.0, 0.0, 0.0, 0.0, 0.0)",-2.498475,3.972831,-0.555384,"(0.0, 0.0, 0.0, 0.0, 0.0, 0.0, 0.0, 0.0, 0.0)",4.191,4.83,1.089,"(0.0, 0.0, 0.0, 0.0, 0.0, 0.0, 0.0, 0.0, 0.0)",0,0,0,,0.0244,-0.083,0.5066,"(0.0, 0.0, 0.0, 0.0, 0.0, 0.0, 0.0, 0.0, 0.0)"
1677800877.6490166,6849,1677800877,639146804,imu1_frame,"$VNYMR,-153.505,+022.202,-029.900,-00.0046,-00.1107,+00.5047,+10.159,+10.563,-04.861,-05.581057,+01.147588,+00.325594*6F",0,0,0,,0.12306059611159881,0.28904101228604584,-0.9114626243685774,0.26560735547130726,"(0.0, 0.0, 0.0, 0.0, 0.0, 0.0, 0.0, 0.0, 0.0)",-5.581057,1.147588,0.325594,"(0.0, 0.0, 0.0, 0.0, 0.0, 0.0, 0.0, 0.0, 0.0)",10.159,10.563,-4.861,"(0.0, 0.0, 0.0, 0.0, 0.0, 0.0, 0.0, 0.0, 0.0)",0,0,0,,-0.0046,-0.1107,0.5047,"(0.0, 0.0, 0.0, 0.0, 0.0, 0.0, 0.0, 0.0, 0.0)"
1677800877.6927898,6850,1677800877,664604187,imu1_frame,"$VNYMR,-146.371,+024.392,-041.002,-00.0066,-00.2083,+00.4725,+16.113,-02.298,-00.227,-13.223598,-03.016446,+07.599394*65",0,0,0,,0.09039276526704647,0.38492463195613646,-0.8549814802269904,0.3356618002836692,"(0.0, 0.0, 0.0, 0.0, 0.0, 0.0, 0.0, 0.0, 0.0)",-13.223598,-3.016446,7.599394,"(0.0, 0.0, 0.0, 0.0, 0.0, 0.0, 0.0, 0.0, 0.0)",16.113,-2.298,-0.227,"(0.0, 0.0, 0.0, 0.0, 0.0, 0.0, 0.0, 0.0, 0.0)",0,0,0,,-0.0066,-0.2083,0.4725,"(0.0, 0.0, 0.0, 0.0, 0.0, 0.0, 0.0, 0.0, 0.0)"
1677800877.692812,6851,1677800877,689933538,imu1_frame,"$VNYMR,-136.110,+024.408,-047.956,+00.0081,-00.2720,+00.4291,+00.172,-04.145,-02.977,-03.954572,-04.209727,+02.367839*60",0,0,0,,0.030714180060119806,0.44060529979111923,-0.7962401305774883,0.41343108663616085,"(0.0, 0.0, 0.0, 0.0, 0.0, 0.0, 0.0, 0.0, 0.0)",-3.954572,-4.209727,2.367839,"(0.0, 0.0, 0.0, 0.0, 0.0, 0.0, 0.0, 0.0, 0.0)",0.172,-4.145,-2.977,"(0.0, 0.0, 0.0, 0.0, 0.0, 0.0, 0.0, 0.0, 0.0)",0,0,0,,0.0081,-0.272,0.4291,"(0.0, 0.0, 0.0, 0.0, 0.0, 0.0, 0.0, 0.0, 0.0)"
1677800877.7370229,6852,1677800877,713473081,imu1_frame,"$VNYMR,-135.467,+022.770,-049.554,+00.0214,-00.2791,+00.4315,+07.985,+04.686,-07.213,-00.260997,+00.017596,-01.531518*61",0,0,0,,0.010190317833723428,0.4481179958794693,-0.7923610662190503,0.4138240688162367,"(0.0, 0.0, 0.0, 0.0, 0.0, 0.0, 0.0, 0.0, 0.0)",-0.260997,0.017596,-1.531518,"(0.0, 0.0, 0.0, 0.0, 0.0, 0.0, 0.0, 0.0, 0.0)",7.985,4.686,-7.213,"(0.0, 0.0, 0.0, 0.0, 0.0, 0.0, 0.0, 0.0, 0.0)",0,0,0,,0.0214,-0.2791,0.4315,"(0.0, 0.0, 0.0, 0.0, 0.0, 0.0, 0.0, 0.0, 0.0)"
1677800877.7409,6853,1677800877,738811731,imu1_frame,"$VNYMR,-137.770,+021.859,-050.475,+00.0237,-00.2803,+00.4203,+07.168,+04.966,-08.174,+00.326511,+01.676189,-01.304163*6A",0,0,0,,0.00917795827282164,0.45231242200251875,-0.7993883086796425,0.3953575216566121,"(0.0, 0.0, 0.0, 0.0, 0.0, 0.0, 0.0, 0.0, 0.0)",0.326511,1.676189,-1.304163,"(0.0, 0.0, 0.0, 0.0, 0.0, 0.0, 0.0, 0.0, 0.0)",7.168,4.966,-8.174,"(0.0, 0.0, 0.0, 0.0, 0.0, 0.0, 0.0, 0.0, 0.0)",0,0,0,,0.0237,-0.2803,0.4203,"(0.0, 0.0, 0.0, 0.0, 0.0, 0.0, 0.0, 0.0, 0.0)"
1677800877.7847755,6854,1677800877,764196157,imu1_frame,"$VNYMR,-140.483,+022.785,-050.633,+00.0147,-00.2848,+00.4335,+05.313,+04.336,-06.110,+00.924432,+01.726496,-00.233575*68",0,0,0,,0.026334961015331032,0.45487598481105995,-0.8054229240310892,0.3790622926587391,"(0.0, 0.0, 0.0, 0.0, 0.0, 0.0, 0.0, 0.0, 0.0)",0.924432,1.726496,-0.233575,"(0.0, 0.0, 0.0, 0.0, 0.0, 0.0, 0.0, 0.0, 0.0)",5.313,4.336,-6.11,"(0.0, 0.0, 0.0, 0.0, 0.0, 0.0, 0.0, 0.0, 0.0)",0,0,0,,0.0147,-0.2848,0.4335,"(0.0, 0.0, 0.0, 0.0, 0.0, 0.0, 0.0, 0.0, 0.0)"
1677800877.828662,6855,1677800877,789634466,imu1_frame,"$VNYMR,-142.284,+025.325,-049.275,-00.0041,-00.2674,+00.4194,+05.667,+02.771,-06.764,+01.693933,+02.179968,+00.975790*6C",0,0,0,,0.057089469182906194,0.4493069658154354,-0.809714732385847,0.3731301316370168,"(0.0, 0.0, 0.0, 0.0, 0.0, 0.0, 0.0, 0.0, 0.0)",1.693933,2.179968,0.97579,"(0.0, 0.0, 0.0, 0.0, 0.0, 0.0, 0.0, 0.0, 0.0)",5.667,2.771,-6.764,"(0.0, 0.0, 0.0, 0.0, 0.0, 0.0, 0.0, 0.0, 0.0)",0,0,0,,-0.0041,-0.2674,0.4194,"(0.0, 0.0, 0.0, 0.0, 0.0, 0.0, 0.0, 0.0, 0.0)"
1677800877.828683,6856,1677800877,814988613,imu1_frame,"$VNYMR,-143.831,+027.981,-046.780,-00.0253,-00.2429,+00.4340,+04.003,-00.610,-05.657,+02.421252,+01.499730,+00.054236*66",0,0,0,,0.0913553749952029,0.43506203969278057,-0.816808848155372,0.36769351728435157,"(0.0, 0.0, 0.0, 0.0, 0.0, 0.0, 0.0, 0.0, 0.0)",2.421252,1.49973,0.054236,"(0.0, 0.0, 0.0, 0.0, 0.0, 0.0, 0.0, 0.0, 0.0)",4.003,-0.61,-5.657,"(0.0, 0.0, 0.0, 0.0, 0.0, 0.0, 0.0, 0.0, 0.0)",0,0,0,,-0.0253,-0.2429,0.434,"(0.0, 0.0, 0.0, 0.0, 0.0, 0.0, 0.0, 0.0, 0.0)"
1677800877.876583,6857,1677800877,838551044,imu1_frame,"$VNYMR,-145.369,+027.132,-043.445,-00.0233,-00.2091,+00.4641,+06.200,-01.005,-08.158,+03.178784,-00.245598,-01.691767*66",0,0,0,,0.10094852594016725,0.40833694893895717,-0.8363029760640318,0.3516641344638013,"(0.0, 0.0, 0.0, 0.0, 0.0, 0.0, 0.0, 0.0, 0.0)",3.178784,-0.245598,-1.691767,"(0.0, 0.0, 0.0, 0.0, 0.0, 0.0, 0.0, 0.0, 0.0)",6.2,-1.005,-8.158,"(0.0, 0.0, 0.0, 0.0, 0.0, 0.0, 0.0, 0.0, 0.0)",0,0,0,,-0.0233,-0.2091,0.4641,"(0.0, 0.0, 0.0, 0.0, 0.0, 0.0, 0.0, 0.0, 0.0)"
1677800877.876603,6858,1677800877,863972663,imu1_frame,"$VNYMR,-147.362,+025.321,-039.769,-00.0133,-00.1883,+00.4672,+05.656,+03.986,-10.084,+03.338125,+00.043909,-01.641251*6D",0,0,0,,0.1045565765075912,0.3763984238580025,-0.8596044996345121,0.32935126086645494,"(0.0, 0.0, 0.0, 0.0, 0.0, 0.0, 0.0, 0.0, 0.0)",3.338125,0.043909,-1.641251,"(0.0, 0.0, 0.0, 0.0, 0.0, 0.0, 0.0, 0.0, 0.0)",5.656,3.986,-10.084,"(0.0, 0.0, 0.0, 0.0, 0.0, 0.0, 0.0, 0.0, 0.0)",0,0,0,,-0.0133,-0.1883,0.4672,"(0.0, 0.0, 0.0, 0.0, 0.0, 0.0, 0.0, 0.0, 0.0)"
1677800877.9215262,6859,1677800877,889375209,imu1_frame,"$VNYMR,-149.562,+024.583,-035.724,-00.0112,-00.1627,+00.4861,+05.903,+05.015,-10.199,+03.578819,+00.705639,-01.687933*6F",0,0,0,,0.11684528414761355,0.34237462303069743,-0.8802241016258308,0.3071356833616865,"(0.0, 0.0, 0.0, 0.0, 0.0, 0.0, 0.0, 0.0, 0.0)",3.578819,0.705639,-1.687933,"(0.0, 0.0, 0.0, 0.0, 0.0, 0.0, 0.0, 0.0, 0.0)",5.903,5.015,-10.199,"(0.0, 0.0, 0.0, 0.0, 0.0, 0.0, 0.0, 0.0, 0.0)",0,0,0,,-0.0112,-0.1627,0.4861,"(0.0, 0.0, 0.0, 0.0, 0.0, 0.0, 0.0, 0.0, 0.0)"
1677800877.921549,6860,1677800877,914744138,imu1_frame,"$VNYMR,-151.300,+024.355,-031.634,-00.0168,-00.1175,+00.4916,+07.823,+05.759,-10.555,+03.281189,+00.351924,-00.446542*68",0,0,0,,0.13058803567903743,0.30842100091479374,-0.8968946417413604,0.2887962131812744,"(0.0, 0.0, 0.0, 0.0, 0.0, 0.0, 0.0, 0.0, 0.0)",3.281189,0.351924,-0.446542,"(0.0, 0.0, 0.0, 0.0, 0.0, 0.0, 0.0, 0.0, 0.0)",7.823,5.759,-10.555,"(0.0, 0.0, 0.0, 0.0, 0.0, 0.0, 0.0, 0.0, 0.0)",0,0,0,,-0.0168,-0.1175,0.4916,"(0.0, 0.0, 0.0, 0.0, 0.0, 0.0, 0.0, 0.0, 0.0)"
1677800877.9646518,6861,1677800877,938281536,imu1_frame,"$VNYMR,-151.971,+025.115,-027.068,-00.0235,-00.0895,+00.5021,+08.359,+02.696,-12.599,+03.396519,+00.918455,+00.020914*6F",0,0,0,,0.14977303410818127,0.272814755667477,-0.9084053797935968,0.27917702861477606,"(0.0, 0.0, 0.0, 0.0, 0.0, 0.0, 0.0, 0.0, 0.0)",3.396519,0.918455,0.020914,"(0.0, 0.0, 0.0, 0.0, 0.0, 0.0, 0.0, 0.0, 0.0)",8.359,2.696,-12.599,"(0.0, 0.0, 0.0, 0.0, 0.0, 0.0, 0.0, 0.0, 0.0)",0,0,0,,-0.0235,-0.0895,0.5021,"(0.0, 0.0, 0.0, 0.0, 0.0, 0.0, 0.0, 0.0, 0.0)"
1677800877.9660769,6862,1677800877,963625431,imu1_frame,"$VNYMR,-152.802,+026.529,-022.655,-00.0345,-00.0490,+00.5047,+07.728,+00.025,-13.259,+03.296523,+01.196401,-00.246030*65",0,0,0,,0.1737195668495749,0.23871480708899379,-0.9170095589968562,0.26819810155638973,"(0.0, 0.0, 0.0, 0.0, 0.0, 0.0, 0.0, 0.0, 0.0)",3.296523,1.196401,-0.24603,"(0.0, 0.0, 0.0, 0.0, 0.0, 0.0, 0.0, 0.0, 0.0)",7.728,0.025,-13.259,"(0.0, 0.0, 0.0, 0.0, 0.0, 0.0, 0.0, 0.0, 0.0)",0,0,0,,-0.0345,-0.049,0.5047,"(0.0, 0.0, 0.0, 0.0, 0.0, 0.0, 0.0, 0.0, 0.0)"
1677800878.0094647,6863,1677800877,989037513,imu1_frame,"$VNYMR,-154.869,+027.730,-018.502,-00.0465,-00.0062,+00.4946,+06.154,-01.081,-15.366,+03.721273,+01.326290,-01.417598*6E",0,0,0,,0.19689797710778872,0.20379326101700265,-0.9269028177957355,0.24607043653645655,"(0.0, 0.0, 0.0, 0.0, 0.0, 0.0, 0.0, 0.0, 0.0)",3.721273,1.32629,-1.417598,"(0.0, 0.0, 0.0, 0.0, 0.0, 0.0, 0.0, 0.0, 0.0)",6.154,-1.081,-15.366,"(0.0, 0.0, 0.0, 0.0, 0.0, 0.0, 0.0, 0.0, 0.0)",0,0,0,,-0.0465,-0.0062,0.4946,"(0.0, 0.0, 0.0, 0.0, 0.0, 0.0, 0.0, 0.0, 0.0)"
1677800878.0540168,6864,1677800878,14345169,imu1_frame,"$VNYMR,-158.914,+028.975,-014.577,-00.0642,+00.0367,+00.4929,+04.353,+00.613,-17.886,+04.382998,+01.730346,-02.533518*62",0,0,0,,0.2214832472630866,0.16616219614577993,-0.938358674283764,0.20692581798854148,"(0.0, 0.0, 0.0, 0.0, 0.0, 0.0, 0.0, 0.0, 0.0)",4.382998,1.730346,-2.533518,"(0.0, 0.0, 0.0, 0.0, 0.0, 0.0, 0.0, 0.0, 0.0)",4.353,0.613,-17.886,"(0.0, 0.0, 0.0, 0.0, 0.0, 0.0, 0.0, 0.0, 0.0)",0,0,0,,-0.0642,0.0367,0.4929,"(0.0, 0.0, 0.0, 0.0, 0.0, 0.0, 0.0, 0.0, 0.0)"
1677800878.0540354,6865,1677800878,39717912,imu1_frame,"$VNYMR,-164.244,+030.834,-010.219,-00.0859,+00.0693,+00.4647,+02.198,+03.926,-18.164,+05.152446,+02.020442,-03.043955*6B",0,0,0,,0.2505191629324149,0.12133715171012638,-0.947878694804388,0.15505942265610884,"(0.0, 0.0, 0.0, 0.0, 0.0, 0.0, 0.0, 0.0, 0.0)",5.152446,2.020442,-3.043955,"(0.0, 0.0, 0.0, 0.0, 0.0, 0.0, 0.0, 0.0, 0.0)",2.198,3.926,-18.164,"(0.0, 0.0, 0.0, 0.0, 0.0, 0.0, 0.0, 0.0, 0.0)",0,0,0,,-0.0859,0.0693,0.4647,"(0.0, 0.0, 0.0, 0.0, 0.0, 0.0, 0.0, 0.0, 0.0)"
1677800878.0970554,6866,1677800878,65199851,imu1_frame,"$VNYMR,-169.974,+033.069,-006.188,-00.1155,+00.1041,+00.4332,+00.252,+06.491,-17.188,+04.721957,+02.007716,-03.125510*61",0,0,0,,0.2785694470228207,0.07637637130891227,-0.9522473226761448,0.0989482164932603,"(0.0, 0.0, 0.0, 0.0, 0.0, 0.0, 0.0, 0.0, 0.0)",4.721957,2.007716,-3.12551,"(0.0, 0.0, 0.0, 0.0, 0.0, 0.0, 0.0, 0.0, 0.0)",0.252,6.491,-17.188,"(0.0, 0.0, 0.0, 0.0, 0.0, 0.0, 0.0, 0.0, 0.0)",0,0,0,,-0.1155,0.1041,0.4332,"(0.0, 0.0, 0.0, 0.0, 0.0, 0.0, 0.0, 0.0, 0.0)"
1677800878.0970771,6867,1677800878,88652372,imu1_frame,"$VNYMR,-175.635,+035.229,-002.822,-00.1389,+00.1356,+00.4185,-02.642,+10.347,-13.657,+04.382051,+01.543369,-03.038179*66",0,0,0,,0.30140611821422314,0.034973281980737625,-0.9518501551501037,0.043732180270977646,"(0.0, 0.0, 0.0, 0.0, 0.0, 0.0, 0.0, 0.0, 0.0)",4.382051,1.543369,-3.038179,"(0.0, 0.0, 0.0, 0.0, 0.0, 0.0, 0.0, 0.0, 0.0)",-2.642,10.347,-13.657,"(0.0, 0.0, 0.0, 0.0, 0.0, 0.0, 0.0, 0.0, 0.0)",0,0,0,,-0.1389,0.1356,0.4185,"(0.0, 0.0, 0.0, 0.0, 0.0, 0.0, 0.0, 0.0, 0.0)"
1677800878.1407654,6868,1677800878,114021539,imu1_frame,"$VNYMR,+179.982,+036.688,+000.383,-00.1597,+00.1402,+00.3891,-02.357,+14.299,-10.781,+03.817709,+00.781524,-01.907031*6F",0,0,0,,-0.3147192096475123,0.0032218932611779785,0.9491785902061397,0.0012009899848385256,"(0.0, 0.0, 0.0, 0.0, 0.0, 0.0, 0.0, 0.0, 0.0)",3.817709,0.781524,-1.907031,"(0.0, 0.0, 0.0, 0.0, 0.0, 0.0, 0.0, 0.0, 0.0)",-2.357,14.299,-10.781,"(0.0, 0.0, 0.0, 0.0, 0.0, 0.0, 0.0, 0.0, 0.0)",0,0,0,,-0.1597,0.1402,0.3891,"(0.0, 0.0, 0.0, 0.0, 0.0, 0.0, 0.0, 0.0, 0.0)"
1677800878.1416805,6869,1677800878,139376640,imu1_frame,"$VNYMR,+178.352,+037.620,+004.319,-00.1651,+00.1680,+00.3708,-00.679,+16.366,-10.766,+03.128534,+00.644565,-00.355543*6A",0,0,0,,-0.32165564561165627,0.04029891115905718,0.9456481864954287,0.025751714184688856,"(0.0, 0.0, 0.0, 0.0, 0.0, 0.0, 0.0, 0.0, 0.0)",3.128534,0.644565,-0.355543,"(0.0, 0.0, 0.0, 0.0, 0.0, 0.0, 0.0, 0.0, 0.0)",-0.679,16.366,-10.766,"(0.0, 0.0, 0.0, 0.0, 0.0, 0.0, 0.0, 0.0, 0.0)",0,0,0,,-0.1651,0.168,0.3708,"(0.0, 0.0, 0.0, 0.0, 0.0, 0.0, 0.0, 0.0, 0.0)"
1677800878.185332,6870,1677800878,165019035,imu1_frame,"$VNYMR,+179.361,+038.583,+008.284,-00.1626,+00.1888,+00.3442,+00.371,+17.187,-09.832,+01.744152,+00.689105,+00.903462*69",0,0,0,,-0.3291261942500357,0.07000934452297536,0.9412370359672848,0.029111545157745132,"(0.0, 0.0, 0.0, 0.0, 0.0, 0.0, 0.0, 0.0, 0.0)",1.744152,0.689105,0.903462,"(0.0, 0.0, 0.0, 0.0, 0.0, 0.0, 0.0, 0.0, 0.0)",0.371,17.187,-9.832,"(0.0, 0.0, 0.0, 0.0, 0.0, 0.0, 0.0, 0.0, 0.0)",0,0,0,,-0.1626,0.1888,0.3442,"(0.0, 0.0, 0.0, 0.0, 0.0, 0.0, 0.0, 0.0, 0.0)"
1677800878.2293415,6871,1677800878,188333749,imu1_frame,"$VNYMR,-178.068,+038.912,+010.434,-00.1626,+00.2015,+00.3466,-00.228,+16.259,-09.284,-00.383445,+00.290282,+01.870638*62",0,0,0,,0.33310134082439063,-0.0801314526276299,-0.9393687211558894,-0.014451738813300814,"(0.0, 0.0, 0.0, 0.0, 0.0, 0.0, 0.0, 0.0, 0.0)",-0.383445,0.290282,1.870638,"(0.0, 0.0, 0.0, 0.0, 0.0, 0.0, 0.0, 0.0, 0.0)",-0.228,16.259,-9.284,"(0.0, 0.0, 0.0, 0.0, 0.0, 0.0, 0.0, 0.0, 0.0)",0,0,0,,-0.1626,0.2015,0.3466,"(0.0, 0.0, 0.0, 0.0, 0.0, 0.0, 0.0, 0.0, 0.0)"
1677800878.2293675,6872,1677800878,213732719,imu1_frame,"$VNYMR,-173.701,+038.486,+011.577,-00.1526,+00.2062,+00.3524,-03.638,+09.992,-09.389,-01.507955,+00.066275,+02.588579*61",0,0,0,,0.3326311457850235,-0.07706283420859475,-0.9397226337455542,0.018417710601484408,"(0.0, 0.0, 0.0, 0.0, 0.0, 0.0, 0.0, 0.0, 0.0)",-1.507955,0.066275,2.588579,"(0.0, 0.0, 0.0, 0.0, 0.0, 0.0, 0.0, 0.0, 0.0)",-3.638,9.992,-9.389,"(0.0, 0.0, 0.0, 0.0, 0.0, 0.0, 0.0, 0.0, 0.0)",0,0,0,,-0.1526,0.2062,0.3524,"(0.0, 0.0, 0.0, 0.0, 0.0, 0.0, 0.0, 0.0, 0.0)"
1677800878.2728045,6873,1677800878,239104270,imu1_frame,"$VNYMR,-169.002,+037.505,+011.970,-00.1392,+00.2049,+00.3483,-03.483,+06.770,-10.124,-01.811030,-00.238730,+02.654191*65",0,0,0,,0.32771846874783733,-0.0676396944772543,-0.9406327870877907,0.056880900380103065,"(0.0, 0.0, 0.0, 0.0, 0.0, 0.0, 0.0, 0.0, 0.0)",-1.81103,-0.23873,2.654191,"(0.0, 0.0, 0.0, 0.0, 0.0, 0.0, 0.0, 0.0, 0.0)",-3.483,6.77,-10.124,"(0.0, 0.0, 0.0, 0.0, 0.0, 0.0, 0.0, 0.0, 0.0)",0,0,0,,-0.1392,0.2049,0.3483,"(0.0, 0.0, 0.0, 0.0, 0.0, 0.0, 0.0, 0.0, 0.0)"
1677800878.2728312,6874,1677800878,264584779,imu1_frame,"$VNYMR,-164.527,+036.542,+012.340,-00.1250,+00.2247,+00.3758,-03.035,+07.834,-12.749,-01.411020,+00.060427,+02.427161*64",0,0,0,,0.32259772815358745,-0.05917149711954979,-0.9400263645890006,0.09370097969798716,"(0.0, 0.0, 0.0, 0.0, 0.0, 0.0, 0.0, 0.0, 0.0)",-1.41102,0.060427,2.427161,"(0.0, 0.0, 0.0, 0.0, 0.0, 0.0, 0.0, 0.0, 0.0)",-3.035,7.834,-12.749,"(0.0, 0.0, 0.0, 0.0, 0.0, 0.0, 0.0, 0.0, 0.0)",0,0,0,,-0.125,0.2247,0.3758,"(0.0, 0.0, 0.0, 0.0, 0.0, 0.0, 0.0, 0.0, 0.0)"
1677800878.3173568,6875,1677800878,289964437,imu1_frame,"$VNYMR,-160.770,+036.432,+012.749,-00.1151,+00.2188,+00.3816,-01.915,+04.507,-13.606,-01.398954,+00.492215,+01.868102*63",0,0,0,,0.32391843963505446,-0.052091187819233796,-0.9365479013489482,0.12345598849328204,"(0.0, 0.0, 0.0, 0.0, 0.0, 0.0, 0.0, 0.0, 0.0)",-1.398954,0.492215,1.868102,"(0.0, 0.0, 0.0, 0.0, 0.0, 0.0, 0.0, 0.0, 0.0)",-1.915,4.507,-13.606,"(0.0, 0.0, 0.0, 0.0, 0.0, 0.0, 0.0, 0.0, 0.0)",0,0,0,,-0.1151,0.2188,0.3816,"(0.0, 0.0, 0.0, 0.0, 0.0, 0.0, 0.0, 0.0, 0.0)"
1677800878.3173747,6876,1677800878,313434362,imu1_frame,"$VNYMR,-157.142,+036.022,+011.782,-00.1053,+00.2108,+00.4102,+00.250,+05.159,-14.113,-02.792387,+00.121874,+02.199326*6F",0,0,0,,0.3208090729537232,-0.03472596802431006,-0.9335055981807053,0.15634239354900217,"(0.0, 0.0, 0.0, 0.0, 0.0, 0.0, 0.0, 0.0, 0.0)",-2.792387,0.121874,2.199326,"(0.0, 0.0, 0.0, 0.0, 0.0, 0.0, 0.0, 0.0, 0.0)",0.25,5.159,-14.113,"(0.0, 0.0, 0.0, 0.0, 0.0, 0.0, 0.0, 0.0, 0.0)",0,0,0,,-0.1053,0.2108,0.4102,"(0.0, 0.0, 0.0, 0.0, 0.0, 0.0, 0.0, 0.0, 0.0)"
1677800878.3607416,6877,1677800878,338803768,imu1_frame,"$VNYMR,-153.494,+035.561,+010.214,-00.0976,+00.1945,+00.4097,-00.703,+03.296,-12.806,-02.500203,-00.146506,+01.780242*62",0,0,0,,0.31549064899190493,-0.012777636857053076,-0.9294250099278467,0.190975216495853,"(0.0, 0.0, 0.0, 0.0, 0.0, 0.0, 0.0, 0.0, 0.0)",-2.500203,-0.146506,1.780242,"(0.0, 0.0, 0.0, 0.0, 0.0, 0.0, 0.0, 0.0, 0.0)",-0.703,3.296,-12.806,"(0.0, 0.0, 0.0, 0.0, 0.0, 0.0, 0.0, 0.0, 0.0)",0,0,0,,-0.0976,0.1945,0.4097,"(0.0, 0.0, 0.0, 0.0, 0.0, 0.0, 0.0, 0.0, 0.0)"
1677800878.3664296,6878,1677800878,364168167,imu1_frame,"$VNYMR,-151.286,+034.666,+007.791,-00.0890,+00.1760,+00.4358,+01.027,+01.057,-13.333,-02.904208,-00.450527,+01.162475*63",0,0,0,,0.30403443295721894,0.010877083979670438,-0.9276592924345423,0.21654789257881535,"(0.0, 0.0, 0.0, 0.0, 0.0, 0.0, 0.0, 0.0, 0.0)",-2.904208,-0.450527,1.162475,"(0.0, 0.0, 0.0, 0.0, 0.0, 0.0, 0.0, 0.0, 0.0)",1.027,1.057,-13.333,"(0.0, 0.0, 0.0, 0.0, 0.0, 0.0, 0.0, 0.0, 0.0)",0,0,0,,-0.089,0.176,0.4358,"(0.0, 0.0, 0.0, 0.0, 0.0, 0.0, 0.0, 0.0, 0.0)"
1677800878.4091263,6879,1677800878,389558315,imu1_frame,"$VNYMR,-149.397,+034.085,+004.795,-00.0847,+00.1565,+00.4616,+03.697,+00.976,-14.038,-02.943234,-00.091607,+01.214009*67",0,0,0,,0.29299859677216233,0.03869856292872669,-0.9246230066435358,0.24026347850279492,"(0.0, 0.0, 0.0, 0.0, 0.0, 0.0, 0.0, 0.0, 0.0)",-2.943234,-0.091607,1.214009,"(0.0, 0.0, 0.0, 0.0, 0.0, 0.0, 0.0, 0.0, 0.0)",3.697,0.976,-14.038,"(0.0, 0.0, 0.0, 0.0, 0.0, 0.0, 0.0, 0.0, 0.0)",0,0,0,,-0.0847,0.1565,0.4616,"(0.0, 0.0, 0.0, 0.0, 0.0, 0.0, 0.0, 0.0, 0.0)"
1677800878.4540765,6880,1677800878,414946556,imu1_frame,"$VNYMR,-146.101,+034.609,-000.085,-00.0803,+00.1217,+00.4635,+01.490,+07.988,-14.047,-08.321295,+00.600492,+03.146656*6A",0,0,0,,0.28432271999226927,0.0873925792201257,-0.913201057120387,0.27854435421968177,"(0.0, 0.0, 0.0, 0.0, 0.0, 0.0, 0.0, 0.0, 0.0)",-8.321295,0.600492,3.146656,"(0.0, 0.0, 0.0, 0.0, 0.0, 0.0, 0.0, 0.0, 0.0)",1.49,7.988,-14.047,"(0.0, 0.0, 0.0, 0.0, 0.0, 0.0, 0.0, 0.0, 0.0)",0,0,0,,-0.0803,0.1217,0.4635,"(0.0, 0.0, 0.0, 0.0, 0.0, 0.0, 0.0, 0.0, 0.0)"
1677800878.4540977,6881,1677800878,438428401,imu1_frame,"$VNYMR,-138.472,+035.351,-008.752,-00.0718,+00.0367,+00.4877,+08.741,-06.666,-12.289,-07.027087,-00.110753,+03.691045*60",0,0,0,,0.2573038023717774,0.17530480790368436,-0.8800959333982245,0.3584607727866267,"(0.0, 0.0, 0.0, 0.0, 0.0, 0.0, 0.0, 0.0, 0.0)",-7.027087,-0.110753,3.691045,"(0.0, 0.0, 0.0, 0.0, 0.0, 0.0, 0.0, 0.0, 0.0)",8.741,-6.666,-12.289,"(0.0, 0.0, 0.0, 0.0, 0.0, 0.0, 0.0, 0.0, 0.0)",0,0,0,,-0.0718,0.0367,0.4877,"(0.0, 0.0, 0.0, 0.0, 0.0, 0.0, 0.0, 0.0, 0.0)"
1677800878.4966102,6882,1677800878,463930845,imu1_frame,"$VNYMR,-134.874,+034.688,-013.245,-00.0641,-00.0038,+00.4949,+06.778,-03.667,-10.228,-04.307683,-01.211536,+01.051181*6B",0,0,0,,0.23121444857069515,0.2152780980385256,-0.8623974058361945,0.3955577501251449,"(0.0, 0.0, 0.0, 0.0, 0.0, 0.0, 0.0, 0.0, 0.0)",-4.307683,-1.211536,1.051181,"(0.0, 0.0, 0.0, 0.0, 0.0, 0.0, 0.0, 0.0, 0.0)",6.778,-3.667,-10.228,"(0.0, 0.0, 0.0, 0.0, 0.0, 0.0, 0.0, 0.0, 0.0)",0,0,0,,-0.0641,-0.0038,0.4949,"(0.0, 0.0, 0.0, 0.0, 0.0, 0.0, 0.0, 0.0, 0.0)"
1677800878.4966235,6883,1677800878,489285945,imu1_frame,"$VNYMR,-134.015,+032.484,-019.377,-00.0499,-00.0559,+00.5053,+07.970,-01.294,-11.249,-05.172836,-01.817753,-00.537990*6D",0,0,0,,0.19068973042606818,0.25643227940180846,-0.8528238220290095,0.4130029556439744,"(0.0, 0.0, 0.0, 0.0, 0.0, 0.0, 0.0, 0.0, 0.0)",-5.172836,-1.817753,-0.53799,"(0.0, 0.0, 0.0, 0.0, 0.0, 0.0, 0.0, 0.0, 0.0)",7.97,-1.294,-11.249,"(0.0, 0.0, 0.0, 0.0, 0.0, 0.0, 0.0, 0.0, 0.0)",0,0,0,,-0.0499,-0.0559,0.5053,"(0.0, 0.0, 0.0, 0.0, 0.0, 0.0, 0.0, 0.0, 0.0)"
1677800878.5409744,6884,1677800878,514613389,imu1_frame,"$VNYMR,-133.089,+029.312,-026.441,-00.0224,-00.1161,+00.5066,+06.645,+03.871,-11.900,-04.644138,-02.517640,-00.275008*60",0,0,0,,0.1378880186401601,0.3010154040214582,-0.8409664754391155,0.4279626245886442,"(0.0, 0.0, 0.0, 0.0, 0.0, 0.0, 0.0, 0.0, 0.0)",-4.644138,-2.51764,-0.275008,"(0.0, 0.0, 0.0, 0.0, 0.0, 0.0, 0.0, 0.0, 0.0)",6.645,3.871,-11.9,"(0.0, 0.0, 0.0, 0.0, 0.0, 0.0, 0.0, 0.0, 0.0)",0,0,0,,-0.0224,-0.1161,0.5066,"(0.0, 0.0, 0.0, 0.0, 0.0, 0.0, 0.0, 0.0, 0.0)"
1677800878.540992,6885,1677800878,538217306,imu1_frame,"$VNYMR,-131.853,+026.618,-031.763,-00.0001,-00.1717,+00.4836,+07.434,+04.158,-12.615,-04.039281,-01.851774,-00.090087*67",0,0,0,,0.09353197680461361,0.3334545756029301,-0.8288912405474054,0.4393166587648073,"(0.0, 0.0, 0.0, 0.0, 0.0, 0.0, 0.0, 0.0, 0.0)",-4.039281,-1.851774,-0.090087,"(0.0, 0.0, 0.0, 0.0, 0.0, 0.0, 0.0, 0.0, 0.0)",7.434,4.158,-12.615,"(0.0, 0.0, 0.0, 0.0, 0.0, 0.0, 0.0, 0.0, 0.0)",0,0,0,,-0.0001,-0.1717,0.4836,"(0.0, 0.0, 0.0, 0.0, 0.0, 0.0, 0.0, 0.0, 0.0)"
1677800878.5853443,6886,1677800878,563616275,imu1_frame,"$VNYMR,-129.447,+024.774,-035.747,+00.0154,-00.1949,+00.4812,+06.603,+04.491,-11.997,-02.957007,-01.935878,+01.150122*66",0,0,0,,0.05661509960266253,0.3582448205851002,-0.8124689113725256,0.45645333504540553,"(0.0, 0.0, 0.0, 0.0, 0.0, 0.0, 0.0, 0.0, 0.0)",-2.957007,-1.935878,1.150122,"(0.0, 0.0, 0.0, 0.0, 0.0, 0.0, 0.0, 0.0, 0.0)",6.603,4.491,-11.997,"(0.0, 0.0, 0.0, 0.0, 0.0, 0.0, 0.0, 0.0, 0.0)",0,0,0,,0.0154,-0.1949,0.4812,"(0.0, 0.0, 0.0, 0.0, 0.0, 0.0, 0.0, 0.0, 0.0)"
1677800878.5910726,6887,1677800878,588863372,imu1_frame,"$VNYMR,-125.323,+023.233,-037.671,+00.0342,-00.2250,+00.4778,+08.011,+01.265,-12.948,-02.503570,-02.066212,+01.088037*6F",0,0,0,,0.024059485137530395,0.3684400139550333,-0.793663368148728,0.48349928164429434,"(0.0, 0.0, 0.0, 0.0, 0.0, 0.0, 0.0, 0.0, 0.0)",-2.50357,-2.066212,1.088037,"(0.0, 0.0, 0.0, 0.0, 0.0, 0.0, 0.0, 0.0, 0.0)",8.011,1.265,-12.948,"(0.0, 0.0, 0.0, 0.0, 0.0, 0.0, 0.0, 0.0, 0.0)",0,0,0,,0.0342,-0.225,0.4778,"(0.0, 0.0, 0.0, 0.0, 0.0, 0.0, 0.0, 0.0, 0.0)"
1677800878.6326067,6888,1677800878,614291906,imu1_frame,"$VNYMR,-123.772,+021.291,-041.074,+00.0483,-00.2529,+00.4522,+09.334,-00.543,-10.736,-02.964730,-01.527472,-00.918261*65",0,0,0,,-0.009886684391149897,0.3856133040946747,-0.7812022142270928,0.4908438994870213,"(0.0, 0.0, 0.0, 0.0, 0.0, 0.0, 0.0, 0.0, 0.0)",-2.96473,-1.527472,-0.918261,"(0.0, 0.0, 0.0, 0.0, 0.0, 0.0, 0.0, 0.0, 0.0)",9.334,-0.543,-10.736,"(0.0, 0.0, 0.0, 0.0, 0.0, 0.0, 0.0, 0.0, 0.0)",0,0,0,,0.0483,-0.2529,0.4522,"(0.0, 0.0, 0.0, 0.0, 0.0, 0.0, 0.0, 0.0, 0.0)"
1677800878.6766038,6889,1677800878,639770030,imu1_frame,"$VNYMR,-124.222,+018.488,-045.059,+00.0692,-00.2714,+00.4476,+06.445,+04.749,-08.809,-02.437882,-01.136273,-01.587517*6E",0,0,0,,-0.04575283211440401,0.40366521268114114,-0.7770084441354957,0.4808523184583148,"(0.0, 0.0, 0.0, 0.0, 0.0, 0.0, 0.0, 0.0, 0.0)",-2.437882,-1.136273,-1.587517,"(0.0, 0.0, 0.0, 0.0, 0.0, 0.0, 0.0, 0.0, 0.0)",6.445,4.749,-8.809,"(0.0, 0.0, 0.0, 0.0, 0.0, 0.0, 0.0, 0.0, 0.0)",0,0,0,,0.0692,-0.2714,0.4476,"(0.0, 0.0, 0.0, 0.0, 0.0, 0.0, 0.0, 0.0, 0.0)"
1677800878.676623,6890,1677800878,665078639,imu1_frame,"$VNYMR,-124.291,+016.648,-048.239,+00.0815,-00.3015,+00.4325,+06.893,+05.558,-08.975,-02.026707,-00.535839,-00.509136*62",0,0,0,,-0.07209477974076378,0.41922406327654144,-0.7708056533323842,0.4742490614591384,"(0.0, 0.0, 0.0, 0.0, 0.0, 0.0, 0.0, 0.0, 0.0)",-2.026707,-0.535839,-0.509136,"(0.0, 0.0, 0.0, 0.0, 0.0, 0.0, 0.0, 0.0, 0.0)",6.893,5.558,-8.975,"(0.0, 0.0, 0.0, 0.0, 0.0, 0.0, 0.0, 0.0, 0.0)",0,0,0,,0.0815,-0.3015,0.4325,"(0.0, 0.0, 0.0, 0.0, 0.0, 0.0, 0.0, 0.0, 0.0)"
1677800878.7218418,6891,1677800878,688610553,imu1_frame,"$VNYMR,-124.219,+016.528,-050.542,+00.0815,-00.3222,+00.4227,+07.821,+03.838,-08.532,-01.456563,+00.253840,+00.148205*61",0,0,0,,-0.08274224664247279,0.43419688591375016,-0.762255728931908,0.4728562028712786,"(0.0, 0.0, 0.0, 0.0, 0.0, 0.0, 0.0, 0.0, 0.0)",-1.456563,0.25384,0.148205,"(0.0, 0.0, 0.0, 0.0, 0.0, 0.0, 0.0, 0.0, 0.0)",7.821,3.838,-8.532,"(0.0, 0.0, 0.0, 0.0, 0.0, 0.0, 0.0, 0.0, 0.0)",0,0,0,,0.0815,-0.3222,0.4227,"(0.0, 0.0, 0.0, 0.0, 0.0, 0.0, 0.0, 0.0, 0.0)"
1677800878.721862,6892,1677800878,714018106,imu1_frame,"$VNYMR,-120.756,+017.691,-051.743,+00.0807,-00.3257,+00.3989,+00.929,-03.361,-11.645,-00.843431,-01.194539,+02.674287*67",0,0,0,,-0.09283803524301004,0.4432010140611385,-0.7397111264424157,0.4977764656597261,"(0.0, 0.0, 0.0, 0.0, 0.0, 0.0, 0.0, 0.0, 0.0)",-0.843431,-1.194539,2.674287,"(0.0, 0.0, 0.0, 0.0, 0.0, 0.0, 0.0, 0.0, 0.0)",0.929,-3.361,-11.645,"(0.0, 0.0, 0.0, 0.0, 0.0, 0.0, 0.0, 0.0, 0.0)",0,0,0,,0.0807,-0.3257,0.3989,"(0.0, 0.0, 0.0, 0.0, 0.0, 0.0, 0.0, 0.0, 0.0)"
1677800878.7654507,6893,1677800878,739380598,imu1_frame,"$VNYMR,-118.812,+019.837,-050.731,+00.0607,-00.3290,+00.4137,+13.008,-01.480,-07.870,+00.016815,+00.504603,+01.497053*6A",0,0,0,,-0.0807960812908371,0.4424594385640058,-0.7286285794868279,0.5165288294264672,"(0.0, 0.0, 0.0, 0.0, 0.0, 0.0, 0.0, 0.0, 0.0)",0.016815,0.504603,1.497053,"(0.0, 0.0, 0.0, 0.0, 0.0, 0.0, 0.0, 0.0, 0.0)",13.008,-1.48,-7.87,"(0.0, 0.0, 0.0, 0.0, 0.0, 0.0, 0.0, 0.0, 0.0)",0,0,0,,0.0607,-0.329,0.4137,"(0.0, 0.0, 0.0, 0.0, 0.0, 0.0, 0.0, 0.0, 0.0)"
1677800878.767477,6894,1677800878,764793395,imu1_frame,"$VNYMR,-119.414,+019.309,-051.701,+00.0629,-00.3405,+00.4077,+04.980,+01.078,-06.821,-00.950830,+00.304976,-01.972975*65",0,0,0,,-0.08650811962197236,0.4472861284389427,-0.7291642701364608,0.5106573525387985,"(0.0, 0.0, 0.0, 0.0, 0.0, 0.0, 0.0, 0.0, 0.0)",-0.95083,0.304976,-1.972975,"(0.0, 0.0, 0.0, 0.0, 0.0, 0.0, 0.0, 0.0, 0.0)",4.98,1.078,-6.821,"(0.0, 0.0, 0.0, 0.0, 0.0, 0.0, 0.0, 0.0, 0.0)",0,0,0,,0.0629,-0.3405,0.4077,"(0.0, 0.0, 0.0, 0.0, 0.0, 0.0, 0.0, 0.0, 0.0)"
1677800878.808589,6895,1677800878,790153503,imu1_frame,"$VNYMR,-120.086,+015.606,-054.148,+00.0873,-00.3569,+00.3871,+00.255,+11.852,-09.686,-01.242873,-02.117402,-02.197809*6F",0,0,0,,-0.12043104861781269,0.4510494076114826,-0.7334601179782445,0.49405166709311304,"(0.0, 0.0, 0.0, 0.0, 0.0, 0.0, 0.0, 0.0, 0.0)",-1.242873,-2.117402,-2.197809,"(0.0, 0.0, 0.0, 0.0, 0.0, 0.0, 0.0, 0.0, 0.0)",0.255,11.852,-9.686,"(0.0, 0.0, 0.0, 0.0, 0.0, 0.0, 0.0, 0.0, 0.0)",0,0,0,,0.0873,-0.3569,0.3871,"(0.0, 0.0, 0.0, 0.0, 0.0, 0.0, 0.0, 0.0, 0.0)"
1677800878.852605,6896,1677800878,813656806,imu1_frame,"$VNYMR,-122.059,+013.135,-053.772,+00.1064,-00.3468,+00.3968,+12.703,+10.947,-19.335,+02.078080,+03.514302,-03.405221*6F",0,0,0,,-0.12835192894981062,0.44244420429702846,-0.750130510800904,0.4744187234757995,"(0.0, 0.0, 0.0, 0.0, 0.0, 0.0, 0.0, 0.0, 0.0)",2.07808,3.514302,-3.405221,"(0.0, 0.0, 0.0, 0.0, 0.0, 0.0, 0.0, 0.0, 0.0)",12.703,10.947,-19.335,"(0.0, 0.0, 0.0, 0.0, 0.0, 0.0, 0.0, 0.0, 0.0)",0,0,0,,0.1064,-0.3468,0.3968,"(0.0, 0.0, 0.0, 0.0, 0.0, 0.0, 0.0, 0.0, 0.0)"
1677800878.8526225,6897,1677800878,839034318,imu1_frame,"$VNYMR,-131.944,+011.213,-049.857,+00.1117,-00.3113,+00.4218,+02.951,+01.828,-09.478,+05.248873,+03.816464,-06.538472*66",0,0,0,,-0.08988439096387466,0.41919605765683693,-0.8075252801484173,0.40509058669295117,"(0.0, 0.0, 0.0, 0.0, 0.0, 0.0, 0.0, 0.0, 0.0)",5.248873,3.816464,-6.538472,"(0.0, 0.0, 0.0, 0.0, 0.0, 0.0, 0.0, 0.0, 0.0)",2.951,1.828,-9.478,"(0.0, 0.0, 0.0, 0.0, 0.0, 0.0, 0.0, 0.0, 0.0)",0,0,0,,0.1117,-0.3113,0.4218,"(0.0, 0.0, 0.0, 0.0, 0.0, 0.0, 0.0, 0.0, 0.0)"
1677800878.90057,6898,1677800878,864495277,imu1_frame,"$VNYMR,-139.944,+010.313,-048.081,+00.1087,-00.2981,+00.4571,-03.008,+38.548,-21.043,+02.015759,+04.971176,-00.180944*69",0,0,0,,-0.06183877055131182,0.4093078209297037,-0.8420167230239751,0.3459059298862141,"(0.0, 0.0, 0.0, 0.0, 0.0, 0.0, 0.0, 0.0, 0.0)",2.015759,4.971176,-0.180944,"(0.0, 0.0, 0.0, 0.0, 0.0, 0.0, 0.0, 0.0, 0.0)",-3.008,38.548,-21.043,"(0.0, 0.0, 0.0, 0.0, 0.0, 0.0, 0.0, 0.0, 0.0)",0,0,0,,0.1087,-0.2981,0.4571,"(0.0, 0.0, 0.0, 0.0, 0.0, 0.0, 0.0, 0.0, 0.0)"
1677800878.90059,6899,1677800878,889959096,imu1_frame,"$VNYMR,-145.084,+022.205,-044.978,+00.0160,-00.2702,+00.4487,+01.290,+14.189,-07.514,+02.499890,+09.200229,+04.391244*6C",0,0,0,,0.05711863096432859,0.41143501754550965,-0.8427994869178717,0.34226848114464037,"(0.0, 0.0, 0.0, 0.0, 0.0, 0.0, 0.0, 0.0, 0.0)",2.49989,9.200229,4.391244,"(0.0, 0.0, 0.0, 0.0, 0.0, 0.0, 0.0, 0.0, 0.0)",1.29,14.189,-7.514,"(0.0, 0.0, 0.0, 0.0, 0.0, 0.0, 0.0, 0.0, 0.0)",0,0,0,,0.016,-0.2702,0.4487,"(0.0, 0.0, 0.0, 0.0, 0.0, 0.0, 0.0, 0.0, 0.0)"
1677800878.9445477,6900,1677800878,913363933,imu1_frame,"$VNYMR,-150.127,+032.562,-044.557,-00.0821,-00.2474,+00.4440,+07.059,+05.108,+04.368,+00.117784,+05.202080,+01.497778*6F",0,0,0,,0.1568594902457685,0.41847574597083836,-0.8308377847436602,0.33163492849251486,"(0.0, 0.0, 0.0, 0.0, 0.0, 0.0, 0.0, 0.0, 0.0)",0.117784,5.20208,1.497778,"(0.0, 0.0, 0.0, 0.0, 0.0, 0.0, 0.0, 0.0, 0.0)",7.059,5.108,4.368,"(0.0, 0.0, 0.0, 0.0, 0.0, 0.0, 0.0, 0.0, 0.0)",0,0,0,,-0.0821,-0.2474,0.444,"(0.0, 0.0, 0.0, 0.0, 0.0, 0.0, 0.0, 0.0, 0.0)"
1677800878.9445658,6901,1677800878,938738346,imu1_frame,"$VNYMR,-152.445,+033.916,-048.351,-00.1005,-00.2565,+00.4328,+08.686,+08.685,-00.569,-03.089530,-00.280415,-01.139249*67",0,0,0,,0.16514341479399866,0.44382502669239515,-0.8190733261727638,0.3238300242163426,"(0.0, 0.0, 0.0, 0.0, 0.0, 0.0, 0.0, 0.0, 0.0)",-3.08953,-0.280415,-1.139249,"(0.0, 0.0, 0.0, 0.0, 0.0, 0.0, 0.0, 0.0, 0.0)",8.686,8.685,-0.569,"(0.0, 0.0, 0.0, 0.0, 0.0, 0.0, 0.0, 0.0, 0.0)",0,0,0,,-0.1005,-0.2565,0.4328,"(0.0, 0.0, 0.0, 0.0, 0.0, 0.0, 0.0, 0.0, 0.0)"
1677800878.9889126,6902,1677800878,964245796,imu1_frame,"$VNYMR,-152.662,+031.655,-054.138,-00.0872,-00.2988,+00.4007,+07.203,+14.984,-11.698,-03.699990,-00.487240,-01.083613*67",0,0,0,,0.1325269304647615,0.48280259241572226,-0.8031052645559822,0.3230482990215423,"(0.0, 0.0, 0.0, 0.0, 0.0, 0.0, 0.0, 0.0, 0.0)",-3.69999,-0.48724,-1.083613,"(0.0, 0.0, 0.0, 0.0, 0.0, 0.0, 0.0, 0.0, 0.0)",7.203,14.984,-11.698,"(0.0, 0.0, 0.0, 0.0, 0.0, 0.0, 0.0, 0.0, 0.0)",0,0,0,,-0.0872,-0.2988,0.4007,"(0.0, 0.0, 0.0, 0.0, 0.0, 0.0, 0.0, 0.0, 0.0)"
1677800878.9914768,6903,1677800878,989530801,imu1_frame,"$VNYMR,-154.082,+032.634,-058.467,-00.0968,-00.3352,+00.3743,+06.436,+14.752,-10.131,-01.890746,+01.876363,+01.038963*62",0,0,0,,0.13381671913370424,0.5117419486973901,-0.7853889577687148,0.3215236362052734,"(0.0, 0.0, 0.0, 0.0, 0.0, 0.0, 0.0, 0.0, 0.0)",-1.890746,1.876363,1.038963,"(0.0, 0.0, 0.0, 0.0, 0.0, 0.0, 0.0, 0.0, 0.0)",6.436,14.752,-10.131,"(0.0, 0.0, 0.0, 0.0, 0.0, 0.0, 0.0, 0.0, 0.0)",0,0,0,,-0.0968,-0.3352,0.3743,"(0.0, 0.0, 0.0, 0.0, 0.0, 0.0, 0.0, 0.0, 0.0)"
1677800879.0326116,6904,1677800879,14902114,imu1_frame,"$VNYMR,-155.461,+036.431,-061.563,-00.1304,-00.3397,+00.3483,+06.811,+07.376,-06.631,-01.396052,+01.901337,+02.185288*6D",0,0,0,,0.1591160419329587,0.5320869290421937,-0.7634361909232281,0.3297434874727154,"(0.0, 0.0, 0.0, 0.0, 0.0, 0.0, 0.0, 0.0, 0.0)",-1.396052,1.901337,2.185288,"(0.0, 0.0, 0.0, 0.0, 0.0, 0.0, 0.0, 0.0, 0.0)",6.811,7.376,-6.631,"(0.0, 0.0, 0.0, 0.0, 0.0, 0.0, 0.0, 0.0, 0.0)",0,0,0,,-0.1304,-0.3397,0.3483,"(0.0, 0.0, 0.0, 0.0, 0.0, 0.0, 0.0, 0.0, 0.0)"
1677800879.0769775,6905,1677800879,38400650,imu1_frame,"$VNYMR,-156.398,+039.965,-064.017,-00.1594,-00.3481,+00.3360,+07.155,+03.548,-07.033,-01.033652,+01.515676,+01.702686*6B",0,0,0,,0.18177931449905665,0.546869783533128,-0.7430310996919507,0.34028591738309344,"(0.0, 0.0, 0.0, 0.0, 0.0, 0.0, 0.0, 0.0, 0.0)",-1.033652,1.515676,1.702686,"(0.0, 0.0, 0.0, 0.0, 0.0, 0.0, 0.0, 0.0, 0.0)",7.155,3.548,-7.033,"(0.0, 0.0, 0.0, 0.0, 0.0, 0.0, 0.0, 0.0, 0.0)",0,0,0,,-0.1594,-0.3481,0.336,"(0.0, 0.0, 0.0, 0.0, 0.0, 0.0, 0.0, 0.0, 0.0)"
1677800879.076994,6906,1677800879,63865184,imu1_frame,"$VNYMR,-158.555,+042.455,-066.405,-00.1820,-00.3481,+00.3169,+07.117,+03.670,-06.358,-00.542697,+01.901908,+00.729226*6F",0,0,0,,0.20270095899141238,0.5578992018287282,-0.7294605811013937,0.33992361265738347,"(0.0, 0.0, 0.0, 0.0, 0.0, 0.0, 0.0, 0.0, 0.0)",-0.542697,1.901908,0.729226,"(0.0, 0.0, 0.0, 0.0, 0.0, 0.0, 0.0, 0.0, 0.0)",7.117,3.67,-6.358,"(0.0, 0.0, 0.0, 0.0, 0.0, 0.0, 0.0, 0.0, 0.0)",0,0,0,,-0.182,-0.3481,0.3169,"(0.0, 0.0, 0.0, 0.0, 0.0, 0.0, 0.0, 0.0, 0.0)"
1677800879.1205947,6907,1677800879,89222192,imu1_frame,"$VNYMR,-161.539,+044.161,-069.302,-00.1991,-00.3527,+00.2810,+07.883,+04.817,-04.679,-01.217556,+01.724004,+00.543327*66",0,0,0,,0.22071566463707876,0.5696556282877525,-0.7181409569496567,0.33324259405923784,"(0.0, 0.0, 0.0, 0.0, 0.0, 0.0, 0.0, 0.0, 0.0)",-1.217556,1.724004,0.543327,"(0.0, 0.0, 0.0, 0.0, 0.0, 0.0, 0.0, 0.0, 0.0)",7.883,4.817,-4.679,"(0.0, 0.0, 0.0, 0.0, 0.0, 0.0, 0.0, 0.0, 0.0)",0,0,0,,-0.1991,-0.3527,0.281,"(0.0, 0.0, 0.0, 0.0, 0.0, 0.0, 0.0, 0.0, 0.0)"
1677800879.1206148,6908,1677800879,114585399,imu1_frame,"$VNYMR,-164.639,+045.840,-073.710,-00.2154,-00.3538,+00.2699,+06.771,+03.549,-03.470,-01.921255,+02.034715,+00.507474*63",0,0,0,,0.23498878421340574,0.5891293300072056,-0.6991530652835765,0.32998771965596757,"(0.0, 0.0, 0.0, 0.0, 0.0, 0.0, 0.0, 0.0, 0.0)",-1.921255,2.034715,0.507474,"(0.0, 0.0, 0.0, 0.0, 0.0, 0.0, 0.0, 0.0, 0.0)",6.771,3.549,-3.47,"(0.0, 0.0, 0.0, 0.0, 0.0, 0.0, 0.0, 0.0, 0.0)",0,0,0,,-0.2154,-0.3538,0.2699,"(0.0, 0.0, 0.0, 0.0, 0.0, 0.0, 0.0, 0.0, 0.0)"
1677800879.16465,6909,1677800879,139946222,imu1_frame,"$VNYMR,-168.795,+047.377,-079.392,-00.2313,-00.3698,+00.2268,+06.529,+02.693,-00.618,-01.841564,+02.130751,+00.591298*6A",0,0,0,,0.2505567971338424,0.6122838607576961,-0.6761953291375977,0.3241753262020052,"(0.0, 0.0, 0.0, 0.0, 0.0, 0.0, 0.0, 0.0, 0.0)",-1.841564,2.130751,0.591298,"(0.0, 0.0, 0.0, 0.0, 0.0, 0.0, 0.0, 0.0, 0.0)",6.529,2.693,-0.618,"(0.0, 0.0, 0.0, 0.0, 0.0, 0.0, 0.0, 0.0, 0.0)",0,0,0,,-0.2313,-0.3698,0.2268,"(0.0, 0.0, 0.0, 0.0, 0.0, 0.0, 0.0, 0.0, 0.0)"
1677800879.165633,6910,1677800879,163490056,imu1_frame,"$VNYMR,-172.376,+048.191,-085.401,-00.2408,-00.3790,+00.1915,+06.847,+03.311,+01.127,-02.701932,+01.377938,+00.182154*63",0,0,0,,0.2582112233545018,0.6376523144789376,-0.650982129782157,0.3208562866420301,"(0.0, 0.0, 0.0, 0.0, 0.0, 0.0, 0.0, 0.0, 0.0)",-2.701932,1.377938,0.182154,"(0.0, 0.0, 0.0, 0.0, 0.0, 0.0, 0.0, 0.0, 0.0)",6.847,3.311,1.127,"(0.0, 0.0, 0.0, 0.0, 0.0, 0.0, 0.0, 0.0, 0.0)",0,0,0,,-0.2408,-0.379,0.1915,"(0.0, 0.0, 0.0, 0.0, 0.0, 0.0, 0.0, 0.0, 0.0)"
1677800879.2126129,6911,1677800879,188882589,imu1_frame,"$VNYMR,-173.203,+048.722,-091.037,-00.2478,-00.3775,+00.1445,+08.118,+05.922,-02.006,-04.157740,-00.103298,+00.674085*65",0,0,0,,0.24998157450311448,0.665942176083897,-0.6197251540214415,0.3316187027214965,"(0.0, 0.0, 0.0, 0.0, 0.0, 0.0, 0.0, 0.0, 0.0)",-4.15774,-0.103298,0.674085,"(0.0, 0.0, 0.0, 0.0, 0.0, 0.0, 0.0, 0.0, 0.0)",8.118,5.922,-2.006,"(0.0, 0.0, 0.0, 0.0, 0.0, 0.0, 0.0, 0.0, 0.0)",0,0,0,,-0.2478,-0.3775,0.1445,"(0.0, 0.0, 0.0, 0.0, 0.0, 0.0, 0.0, 0.0, 0.0)"
1677800879.2565737,6912,1677800879,214275836,imu1_frame,"$VNYMR,-174.944,+050.939,-098.213,-00.2626,-00.3868,+00.0976,+06.039,+00.525,-02.965,-03.957228,+01.389507,+02.102166*68",0,0,0,,0.25114592115454315,0.6942154634874287,-0.5761186179634163,0.3508246778353741,"(0.0, 0.0, 0.0, 0.0, 0.0, 0.0, 0.0, 0.0, 0.0)",-3.957228,1.389507,2.102166,"(0.0, 0.0, 0.0, 0.0, 0.0, 0.0, 0.0, 0.0, 0.0)",6.039,0.525,-2.965,"(0.0, 0.0, 0.0, 0.0, 0.0, 0.0, 0.0, 0.0, 0.0)",0,0,0,,-0.2626,-0.3868,0.0976,"(0.0, 0.0, 0.0, 0.0, 0.0, 0.0, 0.0, 0.0, 0.0)"
1677800879.256629,6913,1677800879,239648342,imu1_frame,"$VNYMR,+178.307,+053.180,-110.528,-00.2859,-00.3631,+00.0263,+04.272,-03.512,+00.569,-05.878358,+03.035043,+02.088625*65",0,0,0,,-0.26587126560020957,-0.7310196992971166,0.5149086612896842,-0.36026620698666867,"(0.0, 0.0, 0.0, 0.0, 0.0, 0.0, 0.0, 0.0, 0.0)",-5.878358,3.035043,2.088625,"(0.0, 0.0, 0.0, 0.0, 0.0, 0.0, 0.0, 0.0, 0.0)",4.272,-3.512,0.569,"(0.0, 0.0, 0.0, 0.0, 0.0, 0.0, 0.0, 0.0, 0.0)",0,0,0,,-0.2859,-0.3631,0.0263,"(0.0, 0.0, 0.0, 0.0, 0.0, 0.0, 0.0, 0.0, 0.0)"
1677800879.300866,6914,1677800879,265073060,imu1_frame,"$VNYMR,+171.067,+052.529,-122.706,-00.2875,-00.3497,-00.0603,+03.146,-02.560,+05.406,-03.770117,+02.484235,+00.131237*6C",0,0,0,,-0.2727906476692843,-0.7680770229434537,0.45885516787960345,-0.35368755177511463,"(0.0, 0.0, 0.0, 0.0, 0.0, 0.0, 0.0, 0.0, 0.0)",-3.770117,2.484235,0.131237,"(0.0, 0.0, 0.0, 0.0, 0.0, 0.0, 0.0, 0.0, 0.0)",3.146,-2.56,5.406,"(0.0, 0.0, 0.0, 0.0, 0.0, 0.0, 0.0, 0.0, 0.0)",0,0,0,,-0.2875,-0.3497,-0.0603,"(0.0, 0.0, 0.0, 0.0, 0.0, 0.0, 0.0, 0.0, 0.0)"
1677800879.3008826,6915,1677800879,288617610,imu1_frame,"$VNYMR,+169.632,+051.820,-129.549,-00.2849,-00.3317,-00.0913,+04.737,+01.804,+05.761,-04.153476,-00.554234,+00.167500*6C",0,0,0,,-0.25898408825528285,-0.7935502030202594,0.4174909491942168,-0.3590356871649345,"(0.0, 0.0, 0.0, 0.0, 0.0, 0.0, 0.0, 0.0, 0.0)",-4.153476,-0.554234,0.1675,"(0.0, 0.0, 0.0, 0.0, 0.0, 0.0, 0.0, 0.0, 0.0)",4.737,1.804,5.761,"(0.0, 0.0, 0.0, 0.0, 0.0, 0.0, 0.0, 0.0, 0.0)",0,0,0,,-0.2849,-0.3317,-0.0913,"(0.0, 0.0, 0.0, 0.0, 0.0, 0.0, 0.0, 0.0, 0.0)"
1677800879.3452587,6916,1677800879,313995361,imu1_frame,"$VNYMR,+170.707,+054.105,-134.447,-00.2956,-00.3044,-00.1196,+03.117,+00.265,-00.284,-04.019343,-01.486381,+01.260112*6B",0,0,0,,-0.24201314835482704,-0.8041817388825593,0.37761765238111994,-0.39003368505986713,"(0.0, 0.0, 0.0, 0.0, 0.0, 0.0, 0.0, 0.0, 0.0)",-4.019343,-1.486381,1.260112,"(0.0, 0.0, 0.0, 0.0, 0.0, 0.0, 0.0, 0.0, 0.0)",3.117,0.265,-0.284,"(0.0, 0.0, 0.0, 0.0, 0.0, 0.0, 0.0, 0.0, 0.0)",0,0,0,,-0.2956,-0.3044,-0.1196,"(0.0, 0.0, 0.0, 0.0, 0.0, 0.0, 0.0, 0.0, 0.0)"
1677800879.3453016,6917,1677800879,339378356,imu1_frame,"$VNYMR,+170.456,+056.464,-141.979,-00.3086,-00.2788,-00.1560,+01.077,-01.573,-01.698,-05.861817,-00.945926,+00.976913*66",0,0,0,,-0.22285239974482507,-0.8172802431722772,0.32320270648859706,-0.421817285760887,"(0.0, 0.0, 0.0, 0.0, 0.0, 0.0, 0.0, 0.0, 0.0)",-5.861817,-0.945926,0.976913,"(0.0, 0.0, 0.0, 0.0, 0.0, 0.0, 0.0, 0.0, 0.0)",1.077,-1.573,-1.698,"(0.0, 0.0, 0.0, 0.0, 0.0, 0.0, 0.0, 0.0, 0.0)",0,0,0,,-0.3086,-0.2788,-0.156,"(0.0, 0.0, 0.0, 0.0, 0.0, 0.0, 0.0, 0.0, 0.0)"
1677800879.3928626,6918,1677800879,364767074,imu1_frame,"$VNYMR,+170.119,+058.355,-151.299,-00.3226,-00.2263,-00.1799,+00.315,-00.479,-01.645,-06.376210,-01.242770,+00.976087*60",0,0,0,,-0.19323092854819637,-0.8323214723984469,0.2562752861067868,-0.45191343481663404,"(0.0, 0.0, 0.0, 0.0, 0.0, 0.0, 0.0, 0.0, 0.0)",-6.37621,-1.24277,0.976087,"(0.0, 0.0, 0.0, 0.0, 0.0, 0.0, 0.0, 0.0, 0.0)",0.315,-0.479,-1.645,"(0.0, 0.0, 0.0, 0.0, 0.0, 0.0, 0.0, 0.0, 0.0)",0,0,0,,-0.3226,-0.2263,-0.1799,"(0.0, 0.0, 0.0, 0.0, 0.0, 0.0, 0.0, 0.0, 0.0)"
1677800879.3928826,6919,1677800879,388213396,imu1_frame,"$VNYMR,+167.158,+061.376,-162.639,-00.3403,-00.1605,-00.2056,+00.525,-00.964,-02.203,-06.090004,-01.735108,+02.400282*6F",0,0,0,,-0.17161334320306443,-0.8361617975017802,0.18539635231647875,-0.48683724321481747,"(0.0, 0.0, 0.0, 0.0, 0.0, 0.0, 0.0, 0.0, 0.0)",-6.090004,-1.735108,2.400282,"(0.0, 0.0, 0.0, 0.0, 0.0, 0.0, 0.0, 0.0, 0.0)",0.525,-0.964,-2.203,"(0.0, 0.0, 0.0, 0.0, 0.0, 0.0, 0.0, 0.0, 0.0)",0,0,0,,-0.3403,-0.1605,-0.2056,"(0.0, 0.0, 0.0, 0.0, 0.0, 0.0, 0.0, 0.0, 0.0)"
1677800879.4371147,6920,1677800879,413754701,imu1_frame,"$VNYMR,+156.380,+064.454,-179.404,-00.3656,-00.0882,-00.1931,+00.265,-04.323,-02.859,-04.090539,-01.375949,+04.587241*6F",0,0,0,,-0.17584885275305995,-0.827455929688684,0.11344891314171321,-0.5210788899153679,"(0.0, 0.0, 0.0, 0.0, 0.0, 0.0, 0.0, 0.0, 0.0)",-4.090539,-1.375949,4.587241,"(0.0, 0.0, 0.0, 0.0, 0.0, 0.0, 0.0, 0.0, 0.0)",0.265,-4.323,-2.859,"(0.0, 0.0, 0.0, 0.0, 0.0, 0.0, 0.0, 0.0, 0.0)",0,0,0,,-0.3656,-0.0882,-0.1931,"(0.0, 0.0, 0.0, 0.0, 0.0, 0.0, 0.0, 0.0, 0.0)"
1677800879.4411602,6921,1677800879,438987970,imu1_frame,"$VNYMR,+139.331,+064.092,+160.821,-00.3731,-00.0126,-00.2031,-01.233,-09.976,-03.019,-02.065449,+00.093861,+05.247662*66",0,0,0,,0.20755016283474353,0.8144084959212201,-0.04940326518409907,0.5396490054357157,"(0.0, 0.0, 0.0, 0.0, 0.0, 0.0, 0.0, 0.0, 0.0)",-2.065449,0.093861,5.247662,"(0.0, 0.0, 0.0, 0.0, 0.0, 0.0, 0.0, 0.0, 0.0)",-1.233,-9.976,-3.019,"(0.0, 0.0, 0.0, 0.0, 0.0, 0.0, 0.0, 0.0, 0.0)",0,0,0,,-0.3731,-0.0126,-0.2031,"(0.0, 0.0, 0.0, 0.0, 0.0, 0.0, 0.0, 0.0, 0.0)"
1677800879.484917,6922,1677800879,464468955,imu1_frame,"$VNYMR,+128.441,+059.806,+151.709,-00.3601,+00.0340,-00.2176,-01.400,-15.811,+01.584,+01.298153,+01.918519,+03.582464*6E",0,0,0,,0.2558697207806192,0.8099125876778847,-0.019476481590787076,0.5274399994060031,"(0.0, 0.0, 0.0, 0.0, 0.0, 0.0, 0.0, 0.0, 0.0)",1.298153,1.918519,3.582464,"(0.0, 0.0, 0.0, 0.0, 0.0, 0.0, 0.0, 0.0, 0.0)",-1.4,-15.811,1.584,"(0.0, 0.0, 0.0, 0.0, 0.0, 0.0, 0.0, 0.0, 0.0)",0,0,0,,-0.3601,0.034,-0.2176,"(0.0, 0.0, 0.0, 0.0, 0.0, 0.0, 0.0, 0.0, 0.0)"
1677800879.528946,6923,1677800879,489827632,imu1_frame,"$VNYMR,+126.994,+056.439,+150.381,-00.3468,+00.0672,-00.2269,-00.140,-16.065,+06.966,-00.702731,+01.316576,+00.260636*67",0,0,0,,0.2719812287751285,0.8162842390979806,-0.002440985014584174,0.5096079804971274,"(0.0, 0.0, 0.0, 0.0, 0.0, 0.0, 0.0, 0.0, 0.0)",-0.702731,1.316576,0.260636,"(0.0, 0.0, 0.0, 0.0, 0.0, 0.0, 0.0, 0.0, 0.0)",-0.14,-16.065,6.966,"(0.0, 0.0, 0.0, 0.0, 0.0, 0.0, 0.0, 0.0, 0.0)",0,0,0,,-0.3468,0.0672,-0.2269,"(0.0, 0.0, 0.0, 0.0, 0.0, 0.0, 0.0, 0.0, 0.0)"
1677800879.5289626,6924,1677800879,513438224,imu1_frame,"$VNYMR,+129.411,+057.383,+152.207,-00.3478,+00.0580,-00.2419,+01.997,-11.304,+05.295,+00.385404,-01.038186,-01.739906*66",0,0,0,,0.25959083566188457,0.8191652402711237,-0.008645155020594236,0.5113767382924125,"(0.0, 0.0, 0.0, 0.0, 0.0, 0.0, 0.0, 0.0, 0.0)",0.385404,-1.038186,-1.739906,"(0.0, 0.0, 0.0, 0.0, 0.0, 0.0, 0.0, 0.0, 0.0)",1.997,-11.304,5.295,"(0.0, 0.0, 0.0, 0.0, 0.0, 0.0, 0.0, 0.0, 0.0)",0,0,0,,-0.3478,0.058,-0.2419,"(0.0, 0.0, 0.0, 0.0, 0.0, 0.0, 0.0, 0.0, 0.0)"
1677800879.576815,6925,1677800879,538693666,imu1_frame,"$VNYMR,+132.279,+060.453,+155.323,-00.3634,+00.0249,-00.2203,+04.282,-06.830,-01.007,+00.450764,-01.333701,-01.742265*6D",0,0,0,,0.24306154411026004,0.8154582061178589,-0.030080974444832098,0.5244465033025094,"(0.0, 0.0, 0.0, 0.0, 0.0, 0.0, 0.0, 0.0, 0.0)",0.450764,-1.333701,-1.742265,"(0.0, 0.0, 0.0, 0.0, 0.0, 0.0, 0.0, 0.0, 0.0)",4.282,-6.83,-1.007,"(0.0, 0.0, 0.0, 0.0, 0.0, 0.0, 0.0, 0.0, 0.0)",0,0,0,,-0.3634,0.0249,-0.2203,"(0.0, 0.0, 0.0, 0.0, 0.0, 0.0, 0.0, 0.0, 0.0)"
1677800879.5768397,6926,1677800879,564142704,imu1_frame,"$VNYMR,+135.084,+061.848,+158.751,-00.3690,+00.0135,-00.2131,+04.300,-06.188,-02.018,+00.874792,+00.044028,-00.963550*6F",0,0,0,,0.23452291634071293,0.8153936919579118,-0.04677965961192787,0.5272037483486677,"(0.0, 0.0, 0.0, 0.0, 0.0, 0.0, 0.0, 0.0, 0.0)",0.874792,0.044028,-0.96355,"(0.0, 0.0, 0.0, 0.0, 0.0, 0.0, 0.0, 0.0, 0.0)",4.3,-6.188,-2.018,"(0.0, 0.0, 0.0, 0.0, 0.0, 0.0, 0.0, 0.0, 0.0)",0,0,0,,-0.369,0.0135,-0.2131,"(0.0, 0.0, 0.0, 0.0, 0.0, 0.0, 0.0, 0.0, 0.0)"
1677800879.6208937,6927,1677800879,589532375,imu1_frame,"$VNYMR,+138.615,+061.726,+162.977,-00.3647,-00.0141,-00.2113,+03.770,-06.978,+00.749,+00.773201,+00.478782,-01.324498*65",0,0,0,,0.22894756378710018,0.8210058062067471,-0.060415238220699705,0.519502144559093,"(0.0, 0.0, 0.0, 0.0, 0.0, 0.0, 0.0, 0.0, 0.0)",0.773201,0.478782,-1.324498,"(0.0, 0.0, 0.0, 0.0, 0.0, 0.0, 0.0, 0.0, 0.0)",3.77,-6.978,0.749,"(0.0, 0.0, 0.0, 0.0, 0.0, 0.0, 0.0, 0.0, 0.0)",0,0,0,,-0.3647,-0.0141,-0.2113,"(0.0, 0.0, 0.0, 0.0, 0.0, 0.0, 0.0, 0.0, 0.0)"
1677800879.6209147,6928,1677800879,614865064,imu1_frame,"$VNYMR,+143.696,+062.181,+168.692,-00.3614,-00.0382,-00.2096,+03.650,-05.403,+00.627,+00.831014,-00.156267,-01.908280*6E",0,0,0,,0.2171458987309445,0.8256257467742047,-0.07992351450335752,0.5145891727944717,"(0.0, 0.0, 0.0, 0.0, 0.0, 0.0, 0.0, 0.0, 0.0)",0.831014,-0.156267,-1.90828,"(0.0, 0.0, 0.0, 0.0, 0.0, 0.0, 0.0, 0.0, 0.0)",3.65,-5.403,0.627,"(0.0, 0.0, 0.0, 0.0, 0.0, 0.0, 0.0, 0.0, 0.0)",0,0,0,,-0.3614,-0.0382,-0.2096,"(0.0, 0.0, 0.0, 0.0, 0.0, 0.0, 0.0, 0.0, 0.0)"
1677800879.664677,6929,1677800879,638413429,imu1_frame,"$VNYMR,+150.453,+062.954,+175.558,-00.3636,-00.0750,-00.2156,+03.946,-04.306,-02.129,+00.545927,-00.092652,-02.397429*68",0,0,0,,0.19774540160085521,0.8291964144967653,-0.10109031089402878,0.5129432828050036,"(0.0, 0.0, 0.0, 0.0, 0.0, 0.0, 0.0, 0.0, 0.0)",0.545927,-0.092652,-2.397429,"(0.0, 0.0, 0.0, 0.0, 0.0, 0.0, 0.0, 0.0, 0.0)",3.946,-4.306,-2.129,"(0.0, 0.0, 0.0, 0.0, 0.0, 0.0, 0.0, 0.0, 0.0)",0,0,0,,-0.3636,-0.075,-0.2156,"(0.0, 0.0, 0.0, 0.0, 0.0, 0.0, 0.0, 0.0, 0.0)"
1677800879.6661003,6930,1677800879,663810968,imu1_frame,"$VNYMR,+158.140,+062.121,-176.904,-00.3571,-00.0933,-00.2075,+03.399,-03.619,-00.820,+00.388265,+01.055636,-02.440746*63",0,0,0,,-0.17604969058776618,-0.8381337546695522,0.12051338039437812,-0.5020107975665372,"(0.0, 0.0, 0.0, 0.0, 0.0, 0.0, 0.0, 0.0, 0.0)",0.388265,1.055636,-2.440746,"(0.0, 0.0, 0.0, 0.0, 0.0, 0.0, 0.0, 0.0, 0.0)",3.399,-3.619,-0.82,"(0.0, 0.0, 0.0, 0.0, 0.0, 0.0, 0.0, 0.0, 0.0)",0,0,0,,-0.3571,-0.0933,-0.2075,"(0.0, 0.0, 0.0, 0.0, 0.0, 0.0, 0.0, 0.0, 0.0)"
1677800879.708711,6931,1677800879,689231872,imu1_frame,"$VNYMR,+165.462,+060.067,-169.599,-00.3363,-00.1428,-00.2117,+03.687,-02.555,+01.106,+01.021974,+01.117053,-02.789624*68",0,0,0,,-0.1540903961599523,-0.8494998703380284,0.14090779831544564,-0.4845112098608612,"(0.0, 0.0, 0.0, 0.0, 0.0, 0.0, 0.0, 0.0, 0.0)",1.021974,1.117053,-2.789624,"(0.0, 0.0, 0.0, 0.0, 0.0, 0.0, 0.0, 0.0, 0.0)",3.687,-2.555,1.106,"(0.0, 0.0, 0.0, 0.0, 0.0, 0.0, 0.0, 0.0, 0.0)",0,0,0,,-0.3363,-0.1428,-0.2117,"(0.0, 0.0, 0.0, 0.0, 0.0, 0.0, 0.0, 0.0, 0.0)"
1677800879.756543,6932,1677800879,714516162,imu1_frame,"$VNYMR,+172.368,+057.657,-161.723,-00.3170,-00.1893,-00.2213,+04.279,-00.489,+02.827,+01.409601,+00.888069,-02.764080*64",0,0,0,,-0.13397672094816415,-0.8579329049268131,0.17051342197001046,-0.46575373516043317,"(0.0, 0.0, 0.0, 0.0, 0.0, 0.0, 0.0, 0.0, 0.0)",1.409601,0.888069,-2.76408,"(0.0, 0.0, 0.0, 0.0, 0.0, 0.0, 0.0, 0.0, 0.0)",4.279,-0.489,2.827,"(0.0, 0.0, 0.0, 0.0, 0.0, 0.0, 0.0, 0.0, 0.0)",0,0,0,,-0.317,-0.1893,-0.2213,"(0.0, 0.0, 0.0, 0.0, 0.0, 0.0, 0.0, 0.0, 0.0)"
1677800879.7565596,6933,1677800879,739001750,imu1_frame,"$VNYMR,+178.205,+055.517,-154.784,-00.3016,-00.2170,-00.2174,+05.234,+01.173,+03.371,+01.406728,+00.355191,-02.544223*6B",0,0,0,,-0.1151771378372657,-0.8618815258965044,0.2002552653597328,-0.451433595264721,"(0.0, 0.0, 0.0, 0.0, 0.0, 0.0, 0.0, 0.0, 0.0)",1.406728,0.355191,-2.544223,"(0.0, 0.0, 0.0, 0.0, 0.0, 0.0, 0.0, 0.0, 0.0)",5.234,1.173,3.371,"(0.0, 0.0, 0.0, 0.0, 0.0, 0.0, 0.0, 0.0, 0.0)",0,0,0,,-0.3016,-0.217,-0.2174,"(0.0, 0.0, 0.0, 0.0, 0.0, 0.0, 0.0, 0.0, 0.0)"
1677800879.8005116,6934,1677800879,763445854,imu1_frame,"$VNYMR,-177.239,+053.910,-148.764,-00.2930,-00.2595,-00.1975,+05.887,+02.489,+03.419,+01.787488,-00.077726,-01.802422*65",0,0,0,,0.10131877762116669,0.8611428616525583,-0.22938773986567582,0.44220893469661215,"(0.0, 0.0, 0.0, 0.0, 0.0, 0.0, 0.0, 0.0, 0.0)",1.787488,-0.077726,-1.802422,"(0.0, 0.0, 0.0, 0.0, 0.0, 0.0, 0.0, 0.0, 0.0)",5.887,2.489,3.419,"(0.0, 0.0, 0.0, 0.0, 0.0, 0.0, 0.0, 0.0, 0.0)",0,0,0,,-0.293,-0.2595,-0.1975,"(0.0, 0.0, 0.0, 0.0, 0.0, 0.0, 0.0, 0.0, 0.0)"
1677800879.800528,6935,1677800879,788888692,imu1_frame,"$VNYMR,-174.244,+053.094,-143.446,-00.2811,-00.2791,-00.1814,+05.766,+01.818,+03.826,+02.112733,-00.320781,-01.171323*69",0,0,0,,0.0973362355702086,0.8554044906374554,-0.25888467635749024,0.4379355420487974,"(0.0, 0.0, 0.0, 0.0, 0.0, 0.0, 0.0, 0.0, 0.0)",2.112733,-0.320781,-1.171323,"(0.0, 0.0, 0.0, 0.0, 0.0, 0.0, 0.0, 0.0, 0.0)",5.766,1.818,3.826,"(0.0, 0.0, 0.0, 0.0, 0.0, 0.0, 0.0, 0.0, 0.0)",0,0,0,,-0.2811,-0.2791,-0.1814,"(0.0, 0.0, 0.0, 0.0, 0.0, 0.0, 0.0, 0.0, 0.0)"
1677800879.848663,6936,1677800879,814346313,imu1_frame,"$VNYMR,-171.493,+052.812,-137.781,-00.2735,-00.2975,-00.1694,+07.101,+02.041,+02.987,+02.558967,-00.756426,-00.852887*6C",0,0,0,,0.09775561096386183,0.8451388132497875,-0.29091490442371415,0.4376673911179179,"(0.0, 0.0, 0.0, 0.0, 0.0, 0.0, 0.0, 0.0, 0.0)",2.558967,-0.756426,-0.852887,"(0.0, 0.0, 0.0, 0.0, 0.0, 0.0, 0.0, 0.0, 0.0)",7.101,2.041,2.987,"(0.0, 0.0, 0.0, 0.0, 0.0, 0.0, 0.0, 0.0, 0.0)",0,0,0,,-0.2735,-0.2975,-0.1694,"(0.0, 0.0, 0.0, 0.0, 0.0, 0.0, 0.0, 0.0, 0.0)"
1677800879.8486822,6937,1677800879,839757204,imu1_frame,"$VNYMR,-168.548,+052.750,-131.795,-00.2761,-00.3157,-00.1242,+07.335,+01.629,+01.533,+02.366786,-00.808170,-01.100309*6A",0,0,0,,0.09891829162101498,0.8318170054988128,-0.3235771627276602,0.43999256892234584,"(0.0, 0.0, 0.0, 0.0, 0.0, 0.0, 0.0, 0.0, 0.0)",2.366786,-0.80817,-1.100309,"(0.0, 0.0, 0.0, 0.0, 0.0, 0.0, 0.0, 0.0, 0.0)",7.335,1.629,1.533,"(0.0, 0.0, 0.0, 0.0, 0.0, 0.0, 0.0, 0.0, 0.0)",0,0,0,,-0.2761,-0.3157,-0.1242,"(0.0, 0.0, 0.0, 0.0, 0.0, 0.0, 0.0, 0.0, 0.0)"
1677800879.8926036,6938,1677800879,865031003,imu1_frame,"$VNYMR,-165.638,+051.814,-126.583,-00.2625,-00.3567,-00.0981,+06.337,+02.469,+01.495,+01.813482,-00.305778,-01.371158*63",0,0,0,,0.09438549532647317,0.8217759579677448,-0.3523239541186686,0.4377710412217302,"(0.0, 0.0, 0.0, 0.0, 0.0, 0.0, 0.0, 0.0, 0.0)",1.813482,-0.305778,-1.371158,"(0.0, 0.0, 0.0, 0.0, 0.0, 0.0, 0.0, 0.0, 0.0)",6.337,2.469,1.495,"(0.0, 0.0, 0.0, 0.0, 0.0, 0.0, 0.0, 0.0, 0.0)",0,0,0,,-0.2625,-0.3567,-0.0981,"(0.0, 0.0, 0.0, 0.0, 0.0, 0.0, 0.0, 0.0, 0.0)"
1677800879.8926213,6939,1677800879,888726949,imu1_frame,"$VNYMR,-163.479,+049.945,-123.132,-00.2492,-00.3706,-00.0932,+06.443,+01.627,+03.492,+00.768159,+00.035904,-01.859229*6A",0,0,0,,0.08440493341418746,0.8177657467728116,-0.3738138346508133,0.4294161241081977,"(0.0, 0.0, 0.0, 0.0, 0.0, 0.0, 0.0, 0.0, 0.0)",0.768159,0.035904,-1.859229,"(0.0, 0.0, 0.0, 0.0, 0.0, 0.0, 0.0, 0.0, 0.0)",6.443,1.627,3.492,"(0.0, 0.0, 0.0, 0.0, 0.0, 0.0, 0.0, 0.0, 0.0)",0,0,0,,-0.2492,-0.3706,-0.0932,"(0.0, 0.0, 0.0, 0.0, 0.0, 0.0, 0.0, 0.0, 0.0)"
1677800879.9373062,6940,1677800879,913963794,imu1_frame,"$VNYMR,-160.360,+046.779,-121.602,-00.2261,-00.3845,-00.0813,+07.019,+01.681,+03.818,-01.621647,-00.110082,-03.292802*6E",0,0,0,,0.05417947755345573,0.8224908931938034,-0.382093762851112,0.41782492890632117,"(0.0, 0.0, 0.0, 0.0, 0.0, 0.0, 0.0, 0.0, 0.0)",-1.621647,-0.110082,-3.292802,"(0.0, 0.0, 0.0, 0.0, 0.0, 0.0, 0.0, 0.0, 0.0)",7.019,1.681,3.818,"(0.0, 0.0, 0.0, 0.0, 0.0, 0.0, 0.0, 0.0, 0.0)",0,0,0,,-0.2261,-0.3845,-0.0813,"(0.0, 0.0, 0.0, 0.0, 0.0, 0.0, 0.0, 0.0, 0.0)"
1677800879.9413242,6941,1677800879,939307451,imu1_frame,"$VNYMR,-156.892,+041.652,-122.890,-00.1815,-00.4069,-00.1130,+05.875,+06.045,+02.352,-02.782005,+00.901828,-04.009495*63",0,0,0,,0.00206759448881369,0.8383732172577737,-0.37517061907127486,0.39544036241076386,"(0.0, 0.0, 0.0, 0.0, 0.0, 0.0, 0.0, 0.0, 0.0)",-2.782005,0.901828,-4.009495,"(0.0, 0.0, 0.0, 0.0, 0.0, 0.0, 0.0, 0.0, 0.0)",5.875,6.045,2.352,"(0.0, 0.0, 0.0, 0.0, 0.0, 0.0, 0.0, 0.0, 0.0)",0,0,0,,-0.1815,-0.4069,-0.113,"(0.0, 0.0, 0.0, 0.0, 0.0, 0.0, 0.0, 0.0, 0.0)"
1677800879.9852448,6942,1677800879,964728593,imu1_frame,"$VNYMR,-155.218,+037.199,-124.420,-00.1449,-00.4326,-00.1264,+05.810,+07.735,+04.255,-01.041630,+00.830655,-02.270252*6E",0,0,0,,-0.03467649375133111,0.8508359287820766,-0.37104101685050384,0.3704110242544072,"(0.0, 0.0, 0.0, 0.0, 0.0, 0.0, 0.0, 0.0, 0.0)",-1.04163,0.830655,-2.270252,"(0.0, 0.0, 0.0, 0.0, 0.0, 0.0, 0.0, 0.0, 0.0)",5.81,7.735,4.255,"(0.0, 0.0, 0.0, 0.0, 0.0, 0.0, 0.0, 0.0, 0.0)",0,0,0,,-0.1449,-0.4326,-0.1264,"(0.0, 0.0, 0.0, 0.0, 0.0, 0.0, 0.0, 0.0, 0.0)"
1677800880.0294173,6943,1677800879,988214015,imu1_frame,"$VNYMR,-154.214,+035.418,-121.468,-00.1294,-00.4338,-00.1215,+06.861,+07.391,+02.154,+03.789979,-00.161325,-00.848363*6C",0,0,0,,-0.04047153739523479,0.843250839612717,-0.3947490732118873,0.3625786057555933,"(0.0, 0.0, 0.0, 0.0, 0.0, 0.0, 0.0, 0.0, 0.0)",3.789979,-0.161325,-0.848363,"(0.0, 0.0, 0.0, 0.0, 0.0, 0.0, 0.0, 0.0, 0.0)",6.861,7.391,2.154,"(0.0, 0.0, 0.0, 0.0, 0.0, 0.0, 0.0, 0.0, 0.0)",0,0,0,,-0.1294,-0.4338,-0.1215,"(0.0, 0.0, 0.0, 0.0, 0.0, 0.0, 0.0, 0.0, 0.0)"
1677800880.029446,6944,1677800880,13695240,imu1_frame,"$VNYMR,-153.336,+034.315,-114.697,-00.1175,-00.4643,-00.0600,+08.830,+07.183,+00.225,+04.137228,+00.125026,-01.205975*6F",0,0,0,,-0.030640774604097976,0.8195183379092862,-0.44434962351503227,0.36056101958491144,"(0.0, 0.0, 0.0, 0.0, 0.0, 0.0, 0.0, 0.0, 0.0)",4.137228,0.125026,-1.205975,"(0.0, 0.0, 0.0, 0.0, 0.0, 0.0, 0.0, 0.0, 0.0)",8.83,7.183,0.225,"(0.0, 0.0, 0.0, 0.0, 0.0, 0.0, 0.0, 0.0, 0.0)",0,0,0,,-0.1175,-0.4643,-0.06,"(0.0, 0.0, 0.0, 0.0, 0.0, 0.0, 0.0, 0.0, 0.0)"
1677800880.0725758,6945,1677800880,38984775,imu1_frame,"$VNYMR,-153.550,+031.922,-108.535,-00.0959,-00.4734,-00.0015,+08.956,+12.724,+00.644,+04.887299,+01.060237,-01.198511*6F",0,0,0,,-0.02221837522376191,0.7964994018053877,-0.49552997032368434,0.3457529395928313,"(0.0, 0.0, 0.0, 0.0, 0.0, 0.0, 0.0, 0.0, 0.0)",4.887299,1.060237,-1.198511,"(0.0, 0.0, 0.0, 0.0, 0.0, 0.0, 0.0, 0.0, 0.0)",8.956,12.724,0.644,"(0.0, 0.0, 0.0, 0.0, 0.0, 0.0, 0.0, 0.0, 0.0)",0,0,0,,-0.0959,-0.4734,-0.0015,"(0.0, 0.0, 0.0, 0.0, 0.0, 0.0, 0.0, 0.0, 0.0)"
1677800880.0725958,6946,1677800880,64407825,imu1_frame,"$VNYMR,-155.146,+032.267,-101.269,-00.0963,-00.4778,+00.0426,+08.341,+11.930,+04.400,+06.073788,+00.490786,+01.614121*66",0,0,0,,0.012299150596350727,0.7631955464202874,-0.5487801979119319,0.34091286745822336,"(0.0, 0.0, 0.0, 0.0, 0.0, 0.0, 0.0, 0.0, 0.0)",6.073788,0.490786,1.614121,"(0.0, 0.0, 0.0, 0.0, 0.0, 0.0, 0.0, 0.0, 0.0)",8.341,11.93,4.4,"(0.0, 0.0, 0.0, 0.0, 0.0, 0.0, 0.0, 0.0, 0.0)",0,0,0,,-0.0963,-0.4778,0.0426,"(0.0, 0.0, 0.0, 0.0, 0.0, 0.0, 0.0, 0.0, 0.0)"
1677800880.1168678,6947,1677800880,89778661,imu1_frame,"$VNYMR,-154.390,+034.900,-092.567,-00.1191,-00.4552,+00.1253,+09.786,+04.486,+03.114,+05.139242,-01.402438,+01.310901*68",0,0,0,,0.04926802733142022,0.7182889284042274,-0.5948528420479012,0.35746856242516173,"(0.0, 0.0, 0.0, 0.0, 0.0, 0.0, 0.0, 0.0, 0.0)",5.139242,-1.402438,1.310901,"(0.0, 0.0, 0.0, 0.0, 0.0, 0.0, 0.0, 0.0, 0.0)",9.786,4.486,3.114,"(0.0, 0.0, 0.0, 0.0, 0.0, 0.0, 0.0, 0.0, 0.0)",0,0,0,,-0.1191,-0.4552,0.1253,"(0.0, 0.0, 0.0, 0.0, 0.0, 0.0, 0.0, 0.0, 0.0)"
1677800880.1175466,6948,1677800880,115136861,imu1_frame,"$VNYMR,-151.031,+034.831,-084.902,-00.1119,-00.4411,+00.1838,+11.410,+09.595,-01.610,+03.702665,-02.124550,-00.512863*61",0,0,0,,0.052739094255928265,0.6787848310117655,-0.6311262232074911,0.3716845860474193,"(0.0, 0.0, 0.0, 0.0, 0.0, 0.0, 0.0, 0.0, 0.0)",3.702665,-2.12455,-0.512863,"(0.0, 0.0, 0.0, 0.0, 0.0, 0.0, 0.0, 0.0, 0.0)",11.41,9.595,-1.61,"(0.0, 0.0, 0.0, 0.0, 0.0, 0.0, 0.0, 0.0, 0.0)",0,0,0,,-0.1119,-0.4411,0.1838,"(0.0, 0.0, 0.0, 0.0, 0.0, 0.0, 0.0, 0.0, 0.0)"
1677800880.1608098,6949,1677800880,138683795,imu1_frame,"$VNYMR,-146.956,+034.741,-076.719,-00.1069,-00.4386,+00.2421,+11.127,+13.816,-04.114,+04.356633,-02.341187,+01.222631*68",0,0,0,,0.0559985561907764,0.6344104609566721,-0.6647815517906371,0.3904523237632523,"(0.0, 0.0, 0.0, 0.0, 0.0, 0.0, 0.0, 0.0, 0.0)",4.356633,-2.341187,1.222631,"(0.0, 0.0, 0.0, 0.0, 0.0, 0.0, 0.0, 0.0, 0.0)",11.127,13.816,-4.114,"(0.0, 0.0, 0.0, 0.0, 0.0, 0.0, 0.0, 0.0, 0.0)",0,0,0,,-0.1069,-0.4386,0.2421,"(0.0, 0.0, 0.0, 0.0, 0.0, 0.0, 0.0, 0.0, 0.0)"
1677800880.2052205,6950,1677800880,164074420,imu1_frame,"$VNYMR,-142.652,+037.434,-067.629,-00.1206,-00.3886,+00.3065,+09.279,+05.407,-05.181,+04.476508,-01.136548,+02.864632*62",0,0,0,,0.08381654354183801,0.5846925328810862,-0.6883004024529763,0.421131790541714,"(0.0, 0.0, 0.0, 0.0, 0.0, 0.0, 0.0, 0.0, 0.0)",4.476508,-1.136548,2.864632,"(0.0, 0.0, 0.0, 0.0, 0.0, 0.0, 0.0, 0.0, 0.0)",9.279,5.407,-5.181,"(0.0, 0.0, 0.0, 0.0, 0.0, 0.0, 0.0, 0.0, 0.0)",0,0,0,,-0.1206,-0.3886,0.3065,"(0.0, 0.0, 0.0, 0.0, 0.0, 0.0, 0.0, 0.0, 0.0)"
1677800880.2053108,6951,1677800880,189534902,imu1_frame,"$VNYMR,-140.388,+038.833,-061.187,-00.1275,-00.3538,+00.3334,+09.649,+00.603,-01.093,+02.556649,-00.839877,+00.128326*6C",0,0,0,,0.10658942113463385,0.5485651812972697,-0.706491515223781,0.43426337180020524,"(0.0, 0.0, 0.0, 0.0, 0.0, 0.0, 0.0, 0.0, 0.0)",2.556649,-0.839877,0.128326,"(0.0, 0.0, 0.0, 0.0, 0.0, 0.0, 0.0, 0.0, 0.0)",9.649,0.603,-1.093,"(0.0, 0.0, 0.0, 0.0, 0.0, 0.0, 0.0, 0.0, 0.0)",0,0,0,,-0.1275,-0.3538,0.3334,"(0.0, 0.0, 0.0, 0.0, 0.0, 0.0, 0.0, 0.0, 0.0)"
1677800880.253022,6952,1677800880,214806318,imu1_frame,"$VNYMR,-138.323,+036.243,-057.757,-00.1067,-00.3387,+00.3651,+09.816,+06.063,-06.596,+01.098256,-02.485384,-01.276454*62",0,0,0,,0.09125724672153224,0.5258604725503224,-0.7243387048476019,0.43643592770263073,"(0.0, 0.0, 0.0, 0.0, 0.0, 0.0, 0.0, 0.0, 0.0)",1.098256,-2.485384,-1.276454,"(0.0, 0.0, 0.0, 0.0, 0.0, 0.0, 0.0, 0.0, 0.0)",9.816,6.063,-6.596,"(0.0, 0.0, 0.0, 0.0, 0.0, 0.0, 0.0, 0.0, 0.0)",0,0,0,,-0.1067,-0.3387,0.3651,"(0.0, 0.0, 0.0, 0.0, 0.0, 0.0, 0.0, 0.0, 0.0)"
1677800880.2530675,6953,1677800880,238324880,imu1_frame,"$VNYMR,-137.222,+032.965,-056.176,-00.0747,-00.3469,+00.3852,+07.059,+06.446,-12.613,+00.480397,-00.547175,-02.010839*6E",0,0,0,,0.06841394920039681,0.5116704551471252,-0.7389882171274444,0.4329079484499449,"(0.0, 0.0, 0.0, 0.0, 0.0, 0.0, 0.0, 0.0, 0.0)",0.480397,-0.547175,-2.010839,"(0.0, 0.0, 0.0, 0.0, 0.0, 0.0, 0.0, 0.0, 0.0)",7.059,6.446,-12.613,"(0.0, 0.0, 0.0, 0.0, 0.0, 0.0, 0.0, 0.0, 0.0)",0,0,0,,-0.0747,-0.3469,0.3852,"(0.0, 0.0, 0.0, 0.0, 0.0, 0.0, 0.0, 0.0, 0.0)"
1677800880.29308,6954,1677800880,263724565,imu1_frame,"$VNYMR,-142.669,+030.503,-059.568,-00.0612,-00.3610,+00.3624,+04.981,+09.746,-03.572,-00.736695,+03.030309,-03.914372*66",0,0,0,,0.06292331882898289,0.527098819452714,-0.7514762408469607,0.3917792106807378,"(0.0, 0.0, 0.0, 0.0, 0.0, 0.0, 0.0, 0.0, 0.0)",-0.736695,3.030309,-3.914372,"(0.0, 0.0, 0.0, 0.0, 0.0, 0.0, 0.0, 0.0, 0.0)",4.981,9.746,-3.572,"(0.0, 0.0, 0.0, 0.0, 0.0, 0.0, 0.0, 0.0, 0.0)",0,0,0,,-0.0612,-0.361,0.3624,"(0.0, 0.0, 0.0, 0.0, 0.0, 0.0, 0.0, 0.0, 0.0)"
1677800880.2931063,6955,1677800880,289215326,imu1_frame,"$VNYMR,-149.359,+027.689,-062.845,-00.0478,-00.3668,+00.3596,+02.607,+17.239,+08.246,+00.036671,+01.733205,-03.035664*6D",0,0,0,,0.06319171111300509,0.5421622977215603,-0.7661493484144187,0.33923741907409066,"(0.0, 0.0, 0.0, 0.0, 0.0, 0.0, 0.0, 0.0, 0.0)",0.036671,1.733205,-3.035664,"(0.0, 0.0, 0.0, 0.0, 0.0, 0.0, 0.0, 0.0, 0.0)",2.607,17.239,8.246,"(0.0, 0.0, 0.0, 0.0, 0.0, 0.0, 0.0, 0.0, 0.0)",0,0,0,,-0.0478,-0.3668,0.3596,"(0.0, 0.0, 0.0, 0.0, 0.0, 0.0, 0.0, 0.0, 0.0)"
1677800880.340925,6956,1677800880,314526557,imu1_frame,"$VNYMR,-148.082,+025.563,-063.468,-00.0279,-00.3843,+00.3575,+03.425,+15.398,+04.678,-00.864116,-03.453695,+00.413151*6A",0,0,0,,0.039873680829121044,0.5449078933014542,-0.7654632534302468,0.3399286469877025,"(0.0, 0.0, 0.0, 0.0, 0.0, 0.0, 0.0, 0.0, 0.0)",-0.864116,-3.453695,0.413151,"(0.0, 0.0, 0.0, 0.0, 0.0, 0.0, 0.0, 0.0, 0.0)",3.425,15.398,4.678,"(0.0, 0.0, 0.0, 0.0, 0.0, 0.0, 0.0, 0.0, 0.0)",0,0,0,,-0.0279,-0.3843,0.3575,"(0.0, 0.0, 0.0, 0.0, 0.0, 0.0, 0.0, 0.0, 0.0)"
1677800880.3418212,6957,1677800880,339876890,imu1_frame,"$VNYMR,-140.216,+023.455,-059.595,+00.0030,-00.3740,+00.3761,+03.454,+04.573,-07.208,+01.474558,-05.666979,+00.844675*60",0,0,0,,0.0003080759317347359,0.5175466483294654,-0.764610170357127,0.3840789753144558,"(0.0, 0.0, 0.0, 0.0, 0.0, 0.0, 0.0, 0.0, 0.0)",1.474558,-5.666979,0.844675,"(0.0, 0.0, 0.0, 0.0, 0.0, 0.0, 0.0, 0.0, 0.0)",3.454,4.573,-7.208,"(0.0, 0.0, 0.0, 0.0, 0.0, 0.0, 0.0, 0.0, 0.0)",0,0,0,,0.003,-0.374,0.3761,"(0.0, 0.0, 0.0, 0.0, 0.0, 0.0, 0.0, 0.0, 0.0)"
1677800880.3851812,6958,1677800880,363570928,imu1_frame,"$VNYMR,-135.163,+018.347,-056.328,+00.0418,-00.3525,+00.3894,-00.424,+36.138,-19.814,-02.169716,-03.498447,-03.498080*6F",0,0,0,,-0.04777619433472974,0.48434517063374427,-0.7758508276408304,0.40147563336732883,"(0.0, 0.0, 0.0, 0.0, 0.0, 0.0, 0.0, 0.0, 0.0)",-2.169716,-3.498447,-3.49808,"(0.0, 0.0, 0.0, 0.0, 0.0, 0.0, 0.0, 0.0, 0.0)",-0.424,36.138,-19.814,"(0.0, 0.0, 0.0, 0.0, 0.0, 0.0, 0.0, 0.0, 0.0)",0,0,0,,0.0418,-0.3525,0.3894,"(0.0, 0.0, 0.0, 0.0, 0.0, 0.0, 0.0, 0.0, 0.0)"
1677800880.4288702,6959,1677800880,388920545,imu1_frame,"$VNYMR,-134.814,+024.742,-056.285,+00.0065,-00.3592,+00.3793,+00.938,+27.314,+08.322,+13.523173,+05.809405,+02.070090*68",0,0,0,,-0.002583320746665313,0.4979348606479461,-0.7563825508254132,0.4241929252265668,"(0.0, 0.0, 0.0, 0.0, 0.0, 0.0, 0.0, 0.0, 0.0)",13.523173,5.809405,2.07009,"(0.0, 0.0, 0.0, 0.0, 0.0, 0.0, 0.0, 0.0, 0.0)",0.938,27.314,8.322,"(0.0, 0.0, 0.0, 0.0, 0.0, 0.0, 0.0, 0.0, 0.0)",0,0,0,,0.0065,-0.3592,0.3793,"(0.0, 0.0, 0.0, 0.0, 0.0, 0.0, 0.0, 0.0, 0.0)"
1677800880.4288955,6960,1677800880,414253711,imu1_frame,"$VNYMR,-132.628,+027.581,-041.501,-00.0174,-00.2582,+00.4610,+05.515,-05.331,-01.849,+02.707147,-00.966823,+00.577269*6C",0,0,0,,0.06590432296666437,0.40464874988095056,-0.7977441373224771,0.44217677551145373,"(0.0, 0.0, 0.0, 0.0, 0.0, 0.0, 0.0, 0.0, 0.0)",2.707147,-0.966823,0.577269,"(0.0, 0.0, 0.0, 0.0, 0.0, 0.0, 0.0, 0.0, 0.0)",5.515,-5.331,-1.849,"(0.0, 0.0, 0.0, 0.0, 0.0, 0.0, 0.0, 0.0, 0.0)",0,0,0,,-0.0174,-0.2582,0.461,"(0.0, 0.0, 0.0, 0.0, 0.0, 0.0, 0.0, 0.0, 0.0)"
1677800880.476778,6961,1677800880,439687967,imu1_frame,"$VNYMR,-135.059,+025.084,-040.787,-00.0019,-00.2560,+00.4583,+06.202,+08.810,-12.580,+00.211664,+01.030416,-02.516627*6C",0,0,0,,0.05808238953774,0.39212106952067843,-0.8165656241306313,0.41962850755364306,"(0.0, 0.0, 0.0, 0.0, 0.0, 0.0, 0.0, 0.0, 0.0)",0.211664,1.030416,-2.516627,"(0.0, 0.0, 0.0, 0.0, 0.0, 0.0, 0.0, 0.0, 0.0)",6.202,8.81,-12.58,"(0.0, 0.0, 0.0, 0.0, 0.0, 0.0, 0.0, 0.0, 0.0)",0,0,0,,-0.0019,-0.256,0.4583,"(0.0, 0.0, 0.0, 0.0, 0.0, 0.0, 0.0, 0.0, 0.0)"
1677800880.476806,6962,1677800880,465024471,imu1_frame,"$VNYMR,-139.534,+024.604,-043.003,-00.0031,-00.2583,+00.4633,+05.229,+04.517,-07.386,-00.413673,+01.735035,-02.517030*6C",0,0,0,,0.06215638701052176,0.40456995523032674,-0.8259428071478624,0.3876573412170064,"(0.0, 0.0, 0.0, 0.0, 0.0, 0.0, 0.0, 0.0, 0.0)",-0.413673,1.735035,-2.51703,"(0.0, 0.0, 0.0, 0.0, 0.0, 0.0, 0.0, 0.0, 0.0)",5.229,4.517,-7.386,"(0.0, 0.0, 0.0, 0.0, 0.0, 0.0, 0.0, 0.0, 0.0)",0,0,0,,-0.0031,-0.2583,0.4633,"(0.0, 0.0, 0.0, 0.0, 0.0, 0.0, 0.0, 0.0, 0.0)"
1677800880.5219927,6963,1677800880,488602399,imu1_frame,"$VNYMR,-144.563,+023.797,-046.619,-00.0006,-00.2723,+00.4359,+04.433,+03.695,-04.763,-01.646402,+01.832728,-02.848973*66",0,0,0,,0.06252879665365439,0.4264556909631788,-0.8311903909883676,0.3512096626842267,"(0.0, 0.0, 0.0, 0.0, 0.0, 0.0, 0.0, 0.0, 0.0)",-1.646402,1.832728,-2.848973,"(0.0, 0.0, 0.0, 0.0, 0.0, 0.0, 0.0, 0.0, 0.0)",4.433,3.695,-4.763,"(0.0, 0.0, 0.0, 0.0, 0.0, 0.0, 0.0, 0.0, 0.0)",0,0,0,,-0.0006,-0.2723,0.4359,"(0.0, 0.0, 0.0, 0.0, 0.0, 0.0, 0.0, 0.0, 0.0)"
1677800880.5220206,6964,1677800880,513851881,imu1_frame,"$VNYMR,-146.756,+019.822,-049.708,+00.0270,-00.3071,+00.4433,+05.851,+11.802,+00.934,-00.674809,-03.039429,-02.385501*6C",0,0,0,,0.031213438226762952,0.4414089559703602,-0.8357951331012018,0.3250082311997114,"(0.0, 0.0, 0.0, 0.0, 0.0, 0.0, 0.0, 0.0, 0.0)",-0.674809,-3.039429,-2.385501,"(0.0, 0.0, 0.0, 0.0, 0.0, 0.0, 0.0, 0.0, 0.0)",5.851,11.802,0.934,"(0.0, 0.0, 0.0, 0.0, 0.0, 0.0, 0.0, 0.0, 0.0)",0,0,0,,0.027,-0.3071,0.4433,"(0.0, 0.0, 0.0, 0.0, 0.0, 0.0, 0.0, 0.0, 0.0)"
1677800880.564709,6965,1677800880,539222240,imu1_frame,"$VNYMR,-144.627,+016.336,-049.122,+00.0548,-00.3038,+00.4303,+05.373,+08.912,-08.801,-00.390814,-01.468634,-00.314326*6F",0,0,0,,-0.0018875020934112224,0.4312559098221404,-0.8397971851080919,0.3297809355676137,"(0.0, 0.0, 0.0, 0.0, 0.0, 0.0, 0.0, 0.0, 0.0)",-0.390814,-1.468634,-0.314326,"(0.0, 0.0, 0.0, 0.0, 0.0, 0.0, 0.0, 0.0, 0.0)",5.373,8.912,-8.801,"(0.0, 0.0, 0.0, 0.0, 0.0, 0.0, 0.0, 0.0, 0.0)",0,0,0,,0.0548,-0.3038,0.4303,"(0.0, 0.0, 0.0, 0.0, 0.0, 0.0, 0.0, 0.0, 0.0)"
1677800880.5668073,6966,1677800880,564727067,imu1_frame,"$VNYMR,-143.089,+016.272,-049.249,+00.0614,-00.3096,+00.4333,+07.870,+06.574,-05.110,-00.443558,-00.786169,+01.196586*66",0,0,0,,-0.008540421464140815,0.43198941414476333,-0.8349583172362374,0.3408178630091293,"(0.0, 0.0, 0.0, 0.0, 0.0, 0.0, 0.0, 0.0, 0.0)",-0.443558,-0.786169,1.196586,"(0.0, 0.0, 0.0, 0.0, 0.0, 0.0, 0.0, 0.0, 0.0)",7.87,6.574,-5.11,"(0.0, 0.0, 0.0, 0.0, 0.0, 0.0, 0.0, 0.0, 0.0)",0,0,0,,0.0614,-0.3096,0.4333,"(0.0, 0.0, 0.0, 0.0, 0.0, 0.0, 0.0, 0.0, 0.0)"
1677800880.6097913,6967,1677800880,588167428,imu1_frame,"$VNYMR,-137.955,+018.777,-050.469,+00.0459,-00.3130,+00.4335,+21.084,+05.630,-04.682,-03.871662,-02.181240,+06.777032*6E",0,0,0,,-0.013149526943296241,0.44555234458566767,-0.8081033396903208,0.3850703709151511,"(0.0, 0.0, 0.0, 0.0, 0.0, 0.0, 0.0, 0.0, 0.0)",-3.871662,-2.18124,6.777032,"(0.0, 0.0, 0.0, 0.0, 0.0, 0.0, 0.0, 0.0, 0.0)",21.084,5.63,-4.682,"(0.0, 0.0, 0.0, 0.0, 0.0, 0.0, 0.0, 0.0, 0.0)",0,0,0,,0.0459,-0.313,0.4335,"(0.0, 0.0, 0.0, 0.0, 0.0, 0.0, 0.0, 0.0, 0.0)"
