Time,header.seq,header.stamp.secs,header.stamp.nsecs,header.frame_id,raw,imu.header.seq,imu.header.stamp.secs,imu.header.stamp.nsecs,imu.header.frame_id,imu.orientation.x,imu.orientation.y,imu.orientation.z,imu.orientation.w,imu.orientation_covariance,imu.angular_velocity.x,imu.angular_velocity.y,imu.angular_velocity.z,imu.angular_velocity_covariance,imu.linear_acceleration.x,imu.linear_acceleration.y,imu.linear_acceleration.z,imu.linear_acceleration_covariance,mag_field.header.seq,mag_field.header.stamp.secs,mag_field.header.stamp.nsecs,mag_field.header.frame_id,mag_field.magnetic_field.x,mag_field.magnetic_field.y,mag_field.magnetic_field.z,mag_field.magnetic_field_covariance
1677800715.956571,380,1677800715,915144920,imu1_frame,"$VNYMR,+045.660,+002.273,-161.945,-00.1182,+00.0233,-00.5463,-07.359,-02.277,+03.999,-04.003355,-00.409422,-02.175424*65",0,0,0,,-0.9112721081220562,-0.3802483869537098,0.07892234952983468,0.13698748819719153,"(0.0, 0.0, 0.0, 0.0, 0.0, 0.0, 0.0, 0.0, 0.0)",-4.003355,-0.409422,-2.175424,"(0.0, 0.0, 0.0, 0.0, 0.0, 0.0, 0.0, 0.0, 0.0)",-7.359,-2.277,3.999,"(0.0, 0.0, 0.0, 0.0, 0.0, 0.0, 0.0, 0.0, 0.0)",0,0,0,,-0.1182,0.0233,-0.5463,"(0.0, 0.0, 0.0, 0.0, 0.0, 0.0, 0.0, 0.0, 0.0)"
1677800715.956594,381,1677800715,940533399,imu1_frame,"$VNYMR,+047.740,+001.525,-167.035,-00.1157,+00.0819,-00.5533,-08.744,-01.731,-00.944,-03.525780,+00.433345,-01.109576*6E",0,0,0,,-0.909146740424616,-0.40066603536469225,0.05777395305646738,0.09788310798429081,"(0.0, 0.0, 0.0, 0.0, 0.0, 0.0, 0.0, 0.0, 0.0)",-3.52578,0.433345,-1.109576,"(0.0, 0.0, 0.0, 0.0, 0.0, 0.0, 0.0, 0.0, 0.0)",-8.744,-1.731,-0.944,"(0.0, 0.0, 0.0, 0.0, 0.0, 0.0, 0.0, 0.0, 0.0)",0,0,0,,-0.1157,0.0819,-0.5533,"(0.0, 0.0, 0.0, 0.0, 0.0, 0.0, 0.0, 0.0, 0.0)"
1677800716.003942,382,1677800715,965696096,imu1_frame,"$VNYMR,+048.512,+000.725,-172.098,-00.1142,+00.1333,-00.5284,-07.137,-02.466,-01.923,-03.655089,+00.499611,-00.336837*6F",0,0,0,,-0.909713068565553,-0.40943231103577093,0.034060438031017284,0.060226257746006144,"(0.0, 0.0, 0.0, 0.0, 0.0, 0.0, 0.0, 0.0, 0.0)",-3.655089,0.499611,-0.336837,"(0.0, 0.0, 0.0, 0.0, 0.0, 0.0, 0.0, 0.0, 0.0)",-7.137,-2.466,-1.923,"(0.0, 0.0, 0.0, 0.0, 0.0, 0.0, 0.0, 0.0, 0.0)",0,0,0,,-0.1142,0.1333,-0.5284,"(0.0, 0.0, 0.0, 0.0, 0.0, 0.0, 0.0, 0.0, 0.0)"
1677800716.0039618,383,1677800715,991056442,imu1_frame,"$VNYMR,+049.324,-001.063,-178.191,-00.0948,+00.1907,-00.5105,-06.435,-04.424,+01.392,-04.515985,+01.524600,-01.000865*6A",0,0,0,,-0.9085716811257898,-0.4173275698684645,-0.0018425163105613516,0.018215510357476167,"(0.0, 0.0, 0.0, 0.0, 0.0, 0.0, 0.0, 0.0, 0.0)",-4.515985,1.5246,-1.000865,"(0.0, 0.0, 0.0, 0.0, 0.0, 0.0, 0.0, 0.0, 0.0)",-6.435,-4.424,1.392,"(0.0, 0.0, 0.0, 0.0, 0.0, 0.0, 0.0, 0.0, 0.0)",0,0,0,,-0.0948,0.1907,-0.5105,"(0.0, 0.0, 0.0, 0.0, 0.0, 0.0, 0.0, 0.0, 0.0)"
1677800716.0469465,384,1677800716,14617443,imu1_frame,"$VNYMR,+050.691,-003.472,+175.005,-00.0695,+00.2612,-00.5014,-05.657,-05.267,+02.695,-04.794955,+01.812636,-00.738629*6A",0,0,0,,0.9030351437112799,0.4262797451924229,0.04599741118221028,0.026407313865023447,"(0.0, 0.0, 0.0, 0.0, 0.0, 0.0, 0.0, 0.0, 0.0)",-4.794955,1.812636,-0.738629,"(0.0, 0.0, 0.0, 0.0, 0.0, 0.0, 0.0, 0.0, 0.0)",-5.657,-5.267,2.695,"(0.0, 0.0, 0.0, 0.0, 0.0, 0.0, 0.0, 0.0, 0.0)",0,0,0,,-0.0695,0.2612,-0.5014,"(0.0, 0.0, 0.0, 0.0, 0.0, 0.0, 0.0, 0.0, 0.0)"
1677800716.0469692,385,1677800716,39943933,imu1_frame,"$VNYMR,+051.951,-006.395,+168.109,-00.0504,+00.3345,-00.4556,-05.600,-05.531,+01.900,-04.221918,+02.605327,-00.570617*64",0,0,0,,0.8952841908647737,0.42975863275700404,0.09517070669022609,0.06867511737537108,"(0.0, 0.0, 0.0, 0.0, 0.0, 0.0, 0.0, 0.0, 0.0)",-4.221918,2.605327,-0.570617,"(0.0, 0.0, 0.0, 0.0, 0.0, 0.0, 0.0, 0.0, 0.0)",-5.6,-5.531,1.9,"(0.0, 0.0, 0.0, 0.0, 0.0, 0.0, 0.0, 0.0, 0.0)",0,0,0,,-0.0504,0.3345,-0.4556,"(0.0, 0.0, 0.0, 0.0, 0.0, 0.0, 0.0, 0.0, 0.0)"
1677800716.088712,386,1677800716,65455675,imu1_frame,"$VNYMR,+054.151,-010.093,+161.947,-00.0191,+00.3687,-00.4138,-02.660,-04.096,+03.777,-04.521605,+02.988753,-00.594767*6E",0,0,0,,0.8822534432435076,0.43549651700449865,0.1484884871685574,0.09961332611813775,"(0.0, 0.0, 0.0, 0.0, 0.0, 0.0, 0.0, 0.0, 0.0)",-4.521605,2.988753,-0.594767,"(0.0, 0.0, 0.0, 0.0, 0.0, 0.0, 0.0, 0.0, 0.0)",-2.66,-4.096,3.777,"(0.0, 0.0, 0.0, 0.0, 0.0, 0.0, 0.0, 0.0, 0.0)",0,0,0,,-0.0191,0.3687,-0.4138,"(0.0, 0.0, 0.0, 0.0, 0.0, 0.0, 0.0, 0.0, 0.0)"
1677800716.0929985,387,1677800716,90777397,imu1_frame,"$VNYMR,+056.328,-012.850,+156.339,+00.0088,+00.4146,-00.3788,-03.196,-08.619,+01.373,-03.007083,+01.891145,-00.936210*6E",0,0,0,,0.868282558928392,0.4388437926715786,0.1927174047051331,0.1279121785370976,"(0.0, 0.0, 0.0, 0.0, 0.0, 0.0, 0.0, 0.0, 0.0)",-3.007083,1.891145,-0.93621,"(0.0, 0.0, 0.0, 0.0, 0.0, 0.0, 0.0, 0.0, 0.0)",-3.196,-8.619,1.373,"(0.0, 0.0, 0.0, 0.0, 0.0, 0.0, 0.0, 0.0, 0.0)",0,0,0,,0.0088,0.4146,-0.3788,"(0.0, 0.0, 0.0, 0.0, 0.0, 0.0, 0.0, 0.0, 0.0)"
1677800716.1367145,388,1677800716,116144418,imu1_frame,"$VNYMR,+059.537,-013.940,+154.105,+00.0156,+00.4346,-00.3720,-04.922,-13.540,+01.723,+00.208333,+01.633647,-02.398336*6B",0,0,0,,0.8532169196840416,0.456696426485967,0.21308010827113333,0.134335882991052,"(0.0, 0.0, 0.0, 0.0, 0.0, 0.0, 0.0, 0.0, 0.0)",0.208333,1.633647,-2.398336,"(0.0, 0.0, 0.0, 0.0, 0.0, 0.0, 0.0, 0.0, 0.0)",-4.922,-13.54,1.723,"(0.0, 0.0, 0.0, 0.0, 0.0, 0.0, 0.0, 0.0, 0.0)",0,0,0,,0.0156,0.4346,-0.372,"(0.0, 0.0, 0.0, 0.0, 0.0, 0.0, 0.0, 0.0, 0.0)"
1677800716.1808572,389,1677800716,139637947,imu1_frame,"$VNYMR,+064.458,-013.863,+155.024,-00.0013,+00.4182,-00.3770,-04.689,-05.166,+14.841,-02.004573,+01.157245,-01.767347*6B",0,0,0,,0.833790474491383,0.4948065289110418,0.21414928988838583,0.11874352712775811,"(0.0, 0.0, 0.0, 0.0, 0.0, 0.0, 0.0, 0.0, 0.0)",-2.004573,1.157245,-1.767347,"(0.0, 0.0, 0.0, 0.0, 0.0, 0.0, 0.0, 0.0, 0.0)",-4.689,-5.166,14.841,"(0.0, 0.0, 0.0, 0.0, 0.0, 0.0, 0.0, 0.0, 0.0)",0,0,0,,-0.0013,0.4182,-0.377,"(0.0, 0.0, 0.0, 0.0, 0.0, 0.0, 0.0, 0.0, 0.0)"
1677800716.180883,390,1677800716,165095090,imu1_frame,"$VNYMR,+066.735,-013.888,+150.350,-00.0047,+00.4314,-00.3320,-05.526,-11.067,+07.172,-02.633856,+00.800350,-01.337954*6B",0,0,0,,0.818450910976702,0.5019632625362378,0.2373057649778485,0.1478410068068428,"(0.0, 0.0, 0.0, 0.0, 0.0, 0.0, 0.0, 0.0, 0.0)",-2.633856,0.80035,-1.337954,"(0.0, 0.0, 0.0, 0.0, 0.0, 0.0, 0.0, 0.0, 0.0)",-5.526,-11.067,7.172,"(0.0, 0.0, 0.0, 0.0, 0.0, 0.0, 0.0, 0.0, 0.0)",0,0,0,,-0.0047,0.4314,-0.332,"(0.0, 0.0, 0.0, 0.0, 0.0, 0.0, 0.0, 0.0, 0.0)"
1677800716.225753,391,1677800716,190417766,imu1_frame,"$VNYMR,+069.143,-014.907,+146.304,-00.0025,+00.4512,-00.3231,-05.865,-08.896,+00.452,-02.068633,+01.846310,-00.659129*69",0,0,0,,0.802750475821032,0.507530884826464,0.26530223857090995,0.16618903912604333,"(0.0, 0.0, 0.0, 0.0, 0.0, 0.0, 0.0, 0.0, 0.0)",-2.068633,1.84631,-0.659129,"(0.0, 0.0, 0.0, 0.0, 0.0, 0.0, 0.0, 0.0, 0.0)",-5.865,-8.896,0.452,"(0.0, 0.0, 0.0, 0.0, 0.0, 0.0, 0.0, 0.0, 0.0)",0,0,0,,-0.0025,0.4512,-0.3231,"(0.0, 0.0, 0.0, 0.0, 0.0, 0.0, 0.0, 0.0, 0.0)"
1677800716.2257798,392,1677800716,215791463,imu1_frame,"$VNYMR,+071.611,-017.259,+142.784,+00.0139,+00.4770,-00.2777,-07.063,-09.405,-00.209,-01.956855,+02.391217,-00.374500*6C",0,0,0,,0.7879203494306513,0.5093459670264029,0.2998924198644852,0.17266367694116247,"(0.0, 0.0, 0.0, 0.0, 0.0, 0.0, 0.0, 0.0, 0.0)",-1.956855,2.391217,-0.3745,"(0.0, 0.0, 0.0, 0.0, 0.0, 0.0, 0.0, 0.0, 0.0)",-7.063,-9.405,-0.209,"(0.0, 0.0, 0.0, 0.0, 0.0, 0.0, 0.0, 0.0, 0.0)",0,0,0,,0.0139,0.477,-0.2777,"(0.0, 0.0, 0.0, 0.0, 0.0, 0.0, 0.0, 0.0, 0.0)"
1677800716.2692146,393,1677800716,240204095,imu1_frame,"$VNYMR,+074.582,-018.754,+139.402,+00.0226,+00.4933,-00.2581,-06.072,-11.843,+02.384,-01.454192,+01.774029,-01.308527*6E",0,0,0,,0.7704349465191652,0.5156749621656276,0.32894889529708016,0.1797274349127598,"(0.0, 0.0, 0.0, 0.0, 0.0, 0.0, 0.0, 0.0, 0.0)",-1.454192,1.774029,-1.308527,"(0.0, 0.0, 0.0, 0.0, 0.0, 0.0, 0.0, 0.0, 0.0)",-6.072,-11.843,2.384,"(0.0, 0.0, 0.0, 0.0, 0.0, 0.0, 0.0, 0.0, 0.0)",0,0,0,,0.0226,0.4933,-0.2581,"(0.0, 0.0, 0.0, 0.0, 0.0, 0.0, 0.0, 0.0, 0.0)"
1677800716.2692335,394,1677800716,265677213,imu1_frame,"$VNYMR,+078.017,-018.783,+136.867,+00.0156,+00.4865,-00.2281,-04.960,-11.089,+02.111,-00.817832,+01.539660,-01.742493*65",0,0,0,,0.750720818276049,0.5309148599855662,0.346189455504693,0.18628077021209216,"(0.0, 0.0, 0.0, 0.0, 0.0, 0.0, 0.0, 0.0, 0.0)",-0.817832,1.53966,-1.742493,"(0.0, 0.0, 0.0, 0.0, 0.0, 0.0, 0.0, 0.0, 0.0)",-4.96,-11.089,2.111,"(0.0, 0.0, 0.0, 0.0, 0.0, 0.0, 0.0, 0.0, 0.0)",0,0,0,,0.0156,0.4865,-0.2281,"(0.0, 0.0, 0.0, 0.0, 0.0, 0.0, 0.0, 0.0, 0.0)"
1677800716.3128932,395,1677800716,291105985,imu1_frame,"$VNYMR,+081.474,-019.018,+133.904,+00.0116,+00.4932,-00.2224,-05.115,-10.572,-00.510,-01.707421,+01.930826,-01.362308*6E",0,0,0,,0.72985762741329,0.5432387133282847,0.36716324174866566,0.19336674470209214,"(0.0, 0.0, 0.0, 0.0, 0.0, 0.0, 0.0, 0.0, 0.0)",-1.707421,1.930826,-1.362308,"(0.0, 0.0, 0.0, 0.0, 0.0, 0.0, 0.0, 0.0, 0.0)",-5.115,-10.572,-0.51,"(0.0, 0.0, 0.0, 0.0, 0.0, 0.0, 0.0, 0.0, 0.0)",0,0,0,,0.0116,0.4932,-0.2224,"(0.0, 0.0, 0.0, 0.0, 0.0, 0.0, 0.0, 0.0, 0.0)"
1677800716.3167114,396,1677800716,314532756,imu1_frame,"$VNYMR,+085.234,-019.448,+129.924,+00.0091,+00.5073,-00.1912,-05.399,-11.895,+01.196,-01.805527,+01.941815,-01.592009*67",0,0,0,,0.7055633744806695,0.5520483348974168,0.39505654819840497,0.20335506940816955,"(0.0, 0.0, 0.0, 0.0, 0.0, 0.0, 0.0, 0.0, 0.0)",-1.805527,1.941815,-1.592009,"(0.0, 0.0, 0.0, 0.0, 0.0, 0.0, 0.0, 0.0, 0.0)",-5.399,-11.895,1.196,"(0.0, 0.0, 0.0, 0.0, 0.0, 0.0, 0.0, 0.0, 0.0)",0,0,0,,0.0091,0.5073,-0.1912,"(0.0, 0.0, 0.0, 0.0, 0.0, 0.0, 0.0, 0.0, 0.0)"
1677800716.3614516,397,1677800716,339930057,imu1_frame,"$VNYMR,+088.858,-018.946,+127.187,-00.0057,+00.5052,-00.1557,-05.359,-12.415,+00.876,-00.521561,+01.608209,-01.700525*67",0,0,0,,0.6821251509593441,0.566164535156477,0.41234986610401564,0.21007280995821973,"(0.0, 0.0, 0.0, 0.0, 0.0, 0.0, 0.0, 0.0, 0.0)",-0.521561,1.608209,-1.700525,"(0.0, 0.0, 0.0, 0.0, 0.0, 0.0, 0.0, 0.0, 0.0)",-5.359,-12.415,0.876,"(0.0, 0.0, 0.0, 0.0, 0.0, 0.0, 0.0, 0.0, 0.0)",0,0,0,,-0.0057,0.5052,-0.1557,"(0.0, 0.0, 0.0, 0.0, 0.0, 0.0, 0.0, 0.0, 0.0)"
1677800716.40459,398,1677800716,365388631,imu1_frame,"$VNYMR,+092.437,-018.912,+125.832,-00.0078,+00.4959,-00.1671,-04.611,-15.651,-01.462,-00.251657,+01.983937,-01.432829*68",0,0,0,,0.6616694476682782,0.5823210985141223,0.42545842619679886,0.20513607148866975,"(0.0, 0.0, 0.0, 0.0, 0.0, 0.0, 0.0, 0.0, 0.0)",-0.251657,1.983937,-1.432829,"(0.0, 0.0, 0.0, 0.0, 0.0, 0.0, 0.0, 0.0, 0.0)",-4.611,-15.651,-1.462,"(0.0, 0.0, 0.0, 0.0, 0.0, 0.0, 0.0, 0.0, 0.0)",0,0,0,,-0.0078,0.4959,-0.1671,"(0.0, 0.0, 0.0, 0.0, 0.0, 0.0, 0.0, 0.0, 0.0)"
1677800716.4046154,399,1677800716,390745878,imu1_frame,"$VNYMR,+097.193,-017.443,+123.534,-00.0279,+00.4903,-00.1535,-03.498,-10.791,-01.084,-00.704406,+01.540743,-03.171916*62",0,0,0,,0.6297423119981648,0.6057547949488233,0.43907657875949907,0.209039486366975,"(0.0, 0.0, 0.0, 0.0, 0.0, 0.0, 0.0, 0.0, 0.0)",-0.704406,1.540743,-3.171916,"(0.0, 0.0, 0.0, 0.0, 0.0, 0.0, 0.0, 0.0, 0.0)",-3.498,-10.791,-1.084,"(0.0, 0.0, 0.0, 0.0, 0.0, 0.0, 0.0, 0.0, 0.0)",0,0,0,,-0.0279,0.4903,-0.1535,"(0.0, 0.0, 0.0, 0.0, 0.0, 0.0, 0.0, 0.0, 0.0)"
1677800716.4486217,400,1677800716,416099071,imu1_frame,"$VNYMR,+100.404,-013.065,+121.735,-00.0740,+00.4881,-00.1416,-03.431,-13.182,+01.200,-00.764694,-01.166130,-03.127531*6A",0,0,0,,0.5980327097279802,0.6313039503406765,0.435214776114339,0.2332387168362316,"(0.0, 0.0, 0.0, 0.0, 0.0, 0.0, 0.0, 0.0, 0.0)",-0.764694,-1.16613,-3.127531,"(0.0, 0.0, 0.0, 0.0, 0.0, 0.0, 0.0, 0.0, 0.0)",-3.431,-13.182,1.2,"(0.0, 0.0, 0.0, 0.0, 0.0, 0.0, 0.0, 0.0, 0.0)",0,0,0,,-0.074,0.4881,-0.1416,"(0.0, 0.0, 0.0, 0.0, 0.0, 0.0, 0.0, 0.0, 0.0)"
1677800716.4486523,401,1677800716,439665555,imu1_frame,"$VNYMR,+099.416,-008.188,+120.491,-00.1086,+00.4734,-00.1063,-05.887,-14.946,+03.363,-00.780036,-02.428193,-02.701868*62",0,0,0,,0.5870173406694518,0.6375938639823123,0.4176612551157999,0.27284387906010327,"(0.0, 0.0, 0.0, 0.0, 0.0, 0.0, 0.0, 0.0, 0.0)",-0.780036,-2.428193,-2.701868,"(0.0, 0.0, 0.0, 0.0, 0.0, 0.0, 0.0, 0.0, 0.0)",-5.887,-14.946,3.363,"(0.0, 0.0, 0.0, 0.0, 0.0, 0.0, 0.0, 0.0, 0.0)",0,0,0,,-0.1086,0.4734,-0.1063,"(0.0, 0.0, 0.0, 0.0, 0.0, 0.0, 0.0, 0.0, 0.0)"
1677800716.4926279,402,1677800716,465037107,imu1_frame,"$VNYMR,+099.369,-003.749,+120.061,-00.1430,+00.4610,-00.0962,-03.505,-15.399,+02.767,-00.225892,-00.846114,-02.649619*68",0,0,0,,0.5726464502511938,0.649615993110513,0.39902500532775914,0.3014202210086957,"(0.0, 0.0, 0.0, 0.0, 0.0, 0.0, 0.0, 0.0, 0.0)",-0.225892,-0.846114,-2.649619,"(0.0, 0.0, 0.0, 0.0, 0.0, 0.0, 0.0, 0.0, 0.0)",-3.505,-15.399,2.767,"(0.0, 0.0, 0.0, 0.0, 0.0, 0.0, 0.0, 0.0, 0.0)",0,0,0,,-0.143,0.461,-0.0962,"(0.0, 0.0, 0.0, 0.0, 0.0, 0.0, 0.0, 0.0, 0.0)"
1677800716.4928489,403,1677800716,490449428,imu1_frame,"$VNYMR,+101.606,+000.152,+119.461,-00.1762,+00.4427,-00.0972,-00.539,-13.183,+01.802,-00.406797,+00.247022,-03.434475*69",0,0,0,,0.5453072652543433,0.6697422100862768,0.3899170020909699,0.31945279771817575,"(0.0, 0.0, 0.0, 0.0, 0.0, 0.0, 0.0, 0.0, 0.0)",-0.406797,0.247022,-3.434475,"(0.0, 0.0, 0.0, 0.0, 0.0, 0.0, 0.0, 0.0, 0.0)",-0.539,-13.183,1.802,"(0.0, 0.0, 0.0, 0.0, 0.0, 0.0, 0.0, 0.0, 0.0)",0,0,0,,-0.1762,0.4427,-0.0972,"(0.0, 0.0, 0.0, 0.0, 0.0, 0.0, 0.0, 0.0, 0.0)"
1677800716.5374036,404,1677800716,515826702,imu1_frame,"$VNYMR,+102.615,+005.321,+119.903,-00.2098,+00.4222,-00.0838,-01.499,-12.913,+02.969,+00.749069,-02.460207,-03.395784*61",0,0,0,,0.5223981154952405,0.6894146997501907,0.365289161324116,0.3440514631773854,"(0.0, 0.0, 0.0, 0.0, 0.0, 0.0, 0.0, 0.0, 0.0)",0.749069,-2.460207,-3.395784,"(0.0, 0.0, 0.0, 0.0, 0.0, 0.0, 0.0, 0.0, 0.0)",-1.499,-12.913,2.969,"(0.0, 0.0, 0.0, 0.0, 0.0, 0.0, 0.0, 0.0, 0.0)",0,0,0,,-0.2098,0.4222,-0.0838,"(0.0, 0.0, 0.0, 0.0, 0.0, 0.0, 0.0, 0.0, 0.0)"
1677800716.5814495,405,1677800716,541190862,imu1_frame,"$VNYMR,+100.666,+012.908,+121.022,-00.2553,+00.3776,-00.0692,+00.002,-12.270,+01.941,+01.814459,-04.497405,-03.937264*6A",0,0,0,,0.5095153959121572,0.7011176672577453,0.3140656496210471,0.3875446370621648,"(0.0, 0.0, 0.0, 0.0, 0.0, 0.0, 0.0, 0.0, 0.0)",1.814459,-4.497405,-3.937264,"(0.0, 0.0, 0.0, 0.0, 0.0, 0.0, 0.0, 0.0, 0.0)",0.002,-12.27,1.941,"(0.0, 0.0, 0.0, 0.0, 0.0, 0.0, 0.0, 0.0, 0.0)",0,0,0,,-0.2553,0.3776,-0.0692,"(0.0, 0.0, 0.0, 0.0, 0.0, 0.0, 0.0, 0.0, 0.0)"
1677800716.5814712,406,1677800716,564816474,imu1_frame,"$VNYMR,+098.637,+021.460,+123.654,-00.3029,+00.3341,-00.0661,+06.364,-12.165,-00.441,+02.884003,-03.656531,-04.292851*65",0,0,0,,0.4979182795867201,0.7141119731800224,0.24479678638382074,0.42684424558671274,"(0.0, 0.0, 0.0, 0.0, 0.0, 0.0, 0.0, 0.0, 0.0)",2.884003,-3.656531,-4.292851,"(0.0, 0.0, 0.0, 0.0, 0.0, 0.0, 0.0, 0.0, 0.0)",6.364,-12.165,-0.441,"(0.0, 0.0, 0.0, 0.0, 0.0, 0.0, 0.0, 0.0, 0.0)",0,0,0,,-0.3029,0.3341,-0.0661,"(0.0, 0.0, 0.0, 0.0, 0.0, 0.0, 0.0, 0.0, 0.0)"
1677800716.626193,407,1677800716,590099573,imu1_frame,"$VNYMR,+097.928,+027.836,+127.539,-00.3327,+00.3092,-00.0570,+06.437,-14.740,+07.088,+02.976810,-03.358990,-02.822319*61",0,0,0,,0.49144460870883677,0.7265542241756755,0.18194295436553792,0.4444073775942976,"(0.0, 0.0, 0.0, 0.0, 0.0, 0.0, 0.0, 0.0, 0.0)",2.97681,-3.35899,-2.822319,"(0.0, 0.0, 0.0, 0.0, 0.0, 0.0, 0.0, 0.0, 0.0)",6.437,-14.74,7.088,"(0.0, 0.0, 0.0, 0.0, 0.0, 0.0, 0.0, 0.0, 0.0)",0,0,0,,-0.3327,0.3092,-0.057,"(0.0, 0.0, 0.0, 0.0, 0.0, 0.0, 0.0, 0.0, 0.0)"
1677800716.6262343,408,1677800716,615595579,imu1_frame,"$VNYMR,+095.432,+032.985,+132.114,-00.3527,+00.2644,-00.0493,+04.797,-14.309,+11.231,+05.795641,-03.608054,-01.012297*64",0,0,0,,0.5043766251077214,0.7258523082474673,0.11331930946369087,0.4537635736365814,"(0.0, 0.0, 0.0, 0.0, 0.0, 0.0, 0.0, 0.0, 0.0)",5.795641,-3.608054,-1.012297,"(0.0, 0.0, 0.0, 0.0, 0.0, 0.0, 0.0, 0.0, 0.0)",4.797,-14.309,11.231,"(0.0, 0.0, 0.0, 0.0, 0.0, 0.0, 0.0, 0.0, 0.0)",0,0,0,,-0.3527,0.2644,-0.0493,"(0.0, 0.0, 0.0, 0.0, 0.0, 0.0, 0.0, 0.0, 0.0)"
1677800716.6732876,409,1677800716,640906572,imu1_frame,"$VNYMR,+089.056,+037.659,+134.664,-00.3588,+00.2512,-00.0354,+04.704,-17.235,+12.200,+03.582606,-05.270670,+00.964370*66",0,0,0,,0.5354061218888734,0.7011337252762271,0.04347560182549237,0.468894077559216,"(0.0, 0.0, 0.0, 0.0, 0.0, 0.0, 0.0, 0.0, 0.0)",3.582606,-5.27067,0.96437,"(0.0, 0.0, 0.0, 0.0, 0.0, 0.0, 0.0, 0.0, 0.0)",4.704,-17.235,12.2,"(0.0, 0.0, 0.0, 0.0, 0.0, 0.0, 0.0, 0.0, 0.0)",0,0,0,,-0.3588,0.2512,-0.0354,"(0.0, 0.0, 0.0, 0.0, 0.0, 0.0, 0.0, 0.0, 0.0)"
1677800716.6733136,410,1677800716,666283845,imu1_frame,"$VNYMR,+080.609,+041.174,+134.332,-00.3578,+00.2674,-00.0242,+09.341,-10.004,+09.093,+04.176912,-04.537184,+01.683738*6F",0,0,0,,0.5697034958600334,0.662149312175573,-0.012155894336852768,0.486670781353415,"(0.0, 0.0, 0.0, 0.0, 0.0, 0.0, 0.0, 0.0, 0.0)",4.176912,-4.537184,1.683738,"(0.0, 0.0, 0.0, 0.0, 0.0, 0.0, 0.0, 0.0, 0.0)",9.341,-10.004,9.093,"(0.0, 0.0, 0.0, 0.0, 0.0, 0.0, 0.0, 0.0, 0.0)",0,0,0,,-0.3578,0.2674,-0.0242,"(0.0, 0.0, 0.0, 0.0, 0.0, 0.0, 0.0, 0.0, 0.0)"
1677800716.716634,411,1677800716,689925670,imu1_frame,"$VNYMR,+073.572,+042.587,+136.492,-00.3523,+00.2674,-00.0112,+06.760,-09.325,+02.231,+05.711281,-02.685355,+01.799186*6D",0,0,0,,0.6124657122435723,0.6260024297830863,-0.0633352169550854,0.4785345959540419,"(0.0, 0.0, 0.0, 0.0, 0.0, 0.0, 0.0, 0.0, 0.0)",5.711281,-2.685355,1.799186,"(0.0, 0.0, 0.0, 0.0, 0.0, 0.0, 0.0, 0.0, 0.0)",6.76,-9.325,2.231,"(0.0, 0.0, 0.0, 0.0, 0.0, 0.0, 0.0, 0.0, 0.0)",0,0,0,,-0.3523,0.2674,-0.0112,"(0.0, 0.0, 0.0, 0.0, 0.0, 0.0, 0.0, 0.0, 0.0)"
1677800716.7177727,412,1677800716,715153455,imu1_frame,"$VNYMR,+067.356,+042.205,+140.948,-00.3431,+00.2793,-00.0294,+08.321,-08.714,+07.929,+05.976041,-01.347026,+03.098711*64",0,0,0,,0.6649817717648222,0.5877256642550606,-0.10946868892132877,0.44765432304660147,"(0.0, 0.0, 0.0, 0.0, 0.0, 0.0, 0.0, 0.0, 0.0)",5.976041,-1.347026,3.098711,"(0.0, 0.0, 0.0, 0.0, 0.0, 0.0, 0.0, 0.0, 0.0)",8.321,-8.714,7.929,"(0.0, 0.0, 0.0, 0.0, 0.0, 0.0, 0.0, 0.0, 0.0)",0,0,0,,-0.3431,0.2793,-0.0294,"(0.0, 0.0, 0.0, 0.0, 0.0, 0.0, 0.0, 0.0, 0.0)"
1677800716.7661734,413,1677800716,740629911,imu1_frame,"$VNYMR,+062.179,+041.516,+145.761,-00.3272,+00.2744,-00.0672,+08.627,-08.080,+16.368,+05.990328,-01.301560,+01.196108*6B",0,0,0,,0.7114184484725249,0.5508060559543853,-0.14792905102323636,0.41062571249287927,"(0.0, 0.0, 0.0, 0.0, 0.0, 0.0, 0.0, 0.0, 0.0)",5.990328,-1.30156,1.196108,"(0.0, 0.0, 0.0, 0.0, 0.0, 0.0, 0.0, 0.0, 0.0)",8.627,-8.08,16.368,"(0.0, 0.0, 0.0, 0.0, 0.0, 0.0, 0.0, 0.0, 0.0)",0,0,0,,-0.3272,0.2744,-0.0672,"(0.0, 0.0, 0.0, 0.0, 0.0, 0.0, 0.0, 0.0, 0.0)"
1677800716.8089805,414,1677800716,766061067,imu1_frame,"$VNYMR,+062.343,+043.548,+152.998,-00.3404,+00.2627,-00.0752,+13.533,-09.575,+17.045,+04.081542,-00.773808,-01.176679*60",0,0,0,,0.727794055710681,0.5414884061512178,-0.1964000953783553,0.3722003775003254,"(0.0, 0.0, 0.0, 0.0, 0.0, 0.0, 0.0, 0.0, 0.0)",4.081542,-0.773808,-1.176679,"(0.0, 0.0, 0.0, 0.0, 0.0, 0.0, 0.0, 0.0, 0.0)",13.533,-9.575,17.045,"(0.0, 0.0, 0.0, 0.0, 0.0, 0.0, 0.0, 0.0, 0.0)",0,0,0,,-0.3404,0.2627,-0.0752,"(0.0, 0.0, 0.0, 0.0, 0.0, 0.0, 0.0, 0.0, 0.0)"
1677800716.808999,415,1677800716,789572715,imu1_frame,"$VNYMR,+063.173,+044.843,+159.859,-00.3479,+00.2406,-00.1045,+14.030,-04.281,+18.734,+04.595645,-01.131931,-00.803746*6A",0,0,0,,0.7403873760072439,0.5335426549477856,-0.23523954140952436,0.3343966611044624,"(0.0, 0.0, 0.0, 0.0, 0.0, 0.0, 0.0, 0.0, 0.0)",4.595645,-1.131931,-0.803746,"(0.0, 0.0, 0.0, 0.0, 0.0, 0.0, 0.0, 0.0, 0.0)",14.03,-4.281,18.734,"(0.0, 0.0, 0.0, 0.0, 0.0, 0.0, 0.0, 0.0, 0.0)",0,0,0,,-0.3479,0.2406,-0.1045,"(0.0, 0.0, 0.0, 0.0, 0.0, 0.0, 0.0, 0.0, 0.0)"
1677800716.853071,416,1677800716,814918518,imu1_frame,"$VNYMR,+064.952,+047.462,+167.639,-00.3658,+00.2060,-00.0967,+13.351,-03.334,+15.100,+04.207747,-02.171125,-02.282321*64",0,0,0,,0.7445311540940651,0.5252394901061881,-0.2846141102582902,0.29797927253121614,"(0.0, 0.0, 0.0, 0.0, 0.0, 0.0, 0.0, 0.0, 0.0)",4.207747,-2.171125,-2.282321,"(0.0, 0.0, 0.0, 0.0, 0.0, 0.0, 0.0, 0.0, 0.0)",13.351,-3.334,15.1,"(0.0, 0.0, 0.0, 0.0, 0.0, 0.0, 0.0, 0.0, 0.0)",0,0,0,,-0.3658,0.206,-0.0967,"(0.0, 0.0, 0.0, 0.0, 0.0, 0.0, 0.0, 0.0, 0.0)"
1677800716.8530786,417,1677800716,840253353,imu1_frame,"$VNYMR,+068.723,+048.334,+177.552,-00.3735,+00.1847,-00.1286,+16.068,-02.430,+12.649,+05.193259,-00.497096,-02.096941*6E",0,0,0,,0.7480357271916642,0.5220467359381415,-0.3268778864238912,0.2471044388679009,"(0.0, 0.0, 0.0, 0.0, 0.0, 0.0, 0.0, 0.0, 0.0)",5.193259,-0.497096,-2.096941,"(0.0, 0.0, 0.0, 0.0, 0.0, 0.0, 0.0, 0.0, 0.0)",16.068,-2.43,12.649,"(0.0, 0.0, 0.0, 0.0, 0.0, 0.0, 0.0, 0.0, 0.0)",0,0,0,,-0.3735,0.1847,-0.1286,"(0.0, 0.0, 0.0, 0.0, 0.0, 0.0, 0.0, 0.0, 0.0)"
1677800716.899936,418,1677800716,865659236,imu1_frame,"$VNYMR,+074.036,+048.698,-172.096,-00.3891,+00.1257,-00.1292,+16.594,+02.269,+12.768,+04.084504,-00.162546,-02.636963*68",0,0,0,,-0.7428037402237875,-0.5245201353729151,0.3662155041290331,-0.1975030015808597,"(0.0, 0.0, 0.0, 0.0, 0.0, 0.0, 0.0, 0.0, 0.0)",4.084504,-0.162546,-2.636963,"(0.0, 0.0, 0.0, 0.0, 0.0, 0.0, 0.0, 0.0, 0.0)",16.594,2.269,12.768,"(0.0, 0.0, 0.0, 0.0, 0.0, 0.0, 0.0, 0.0, 0.0)",0,0,0,,-0.3891,0.1257,-0.1292,"(0.0, 0.0, 0.0, 0.0, 0.0, 0.0, 0.0, 0.0, 0.0)"
1677800716.8999634,419,1677800716,891141653,imu1_frame,"$VNYMR,+078.801,+049.754,-165.409,-00.4081,+00.1178,-00.1142,+13.451,+01.369,+11.960,+01.281374,-02.210292,-01.395368*6F",0,0,0,,-0.7292611277189219,-0.5299011815276226,0.3955574640891272,-0.1758329833027205,"(0.0, 0.0, 0.0, 0.0, 0.0, 0.0, 0.0, 0.0, 0.0)",1.281374,-2.210292,-1.395368,"(0.0, 0.0, 0.0, 0.0, 0.0, 0.0, 0.0, 0.0, 0.0)",13.451,1.369,11.96,"(0.0, 0.0, 0.0, 0.0, 0.0, 0.0, 0.0, 0.0, 0.0)",0,0,0,,-0.4081,0.1178,-0.1142,"(0.0, 0.0, 0.0, 0.0, 0.0, 0.0, 0.0, 0.0, 0.0)"
1677800716.9416025,420,1677800716,914526462,imu1_frame,"$VNYMR,+084.001,+054.251,-159.337,-00.4223,+00.0907,-00.0970,+16.280,+04.057,+07.005,+01.837173,-04.310149,-00.978600*64",0,0,0,,-0.7053928032781457,-0.5251165794922863,0.440139783347948,-0.18152284192393497,"(0.0, 0.0, 0.0, 0.0, 0.0, 0.0, 0.0, 0.0, 0.0)",1.837173,-4.310149,-0.9786,"(0.0, 0.0, 0.0, 0.0, 0.0, 0.0, 0.0, 0.0, 0.0)",16.28,4.057,7.005,"(0.0, 0.0, 0.0, 0.0, 0.0, 0.0, 0.0, 0.0, 0.0)",0,0,0,,-0.4223,0.0907,-0.097,"(0.0, 0.0, 0.0, 0.0, 0.0, 0.0, 0.0, 0.0, 0.0)"
1677800716.9424107,421,1677800716,939874887,imu1_frame,"$VNYMR,+087.777,+059.279,-153.598,-00.4406,+00.0921,-00.0516,+20.176,+05.517,+02.183,+01.276751,-03.034683,+00.763459*65",0,0,0,,-0.6881331452725176,-0.5052322090876042,0.48459529002472945,-0.19073697639330464,"(0.0, 0.0, 0.0, 0.0, 0.0, 0.0, 0.0, 0.0, 0.0)",1.276751,-3.034683,0.763459,"(0.0, 0.0, 0.0, 0.0, 0.0, 0.0, 0.0, 0.0, 0.0)",20.176,5.517,2.183,"(0.0, 0.0, 0.0, 0.0, 0.0, 0.0, 0.0, 0.0, 0.0)",0,0,0,,-0.4406,0.0921,-0.0516,"(0.0, 0.0, 0.0, 0.0, 0.0, 0.0, 0.0, 0.0, 0.0)"
1677800716.9859316,422,1677800716,966272592,imu1_frame,"$VNYMR,+089.383,+061.549,-151.823,-00.4463,+00.0981,-00.0306,+20.235,+06.990,+00.782,+00.035084,-00.935553,-00.243924*63",0,0,0,,-0.6800211794499684,-0.49753988411053013,0.4998889632853258,-0.20034041929744592,"(0.0, 0.0, 0.0, 0.0, 0.0, 0.0, 0.0, 0.0, 0.0)",0.035084,-0.935553,-0.243924,"(0.0, 0.0, 0.0, 0.0, 0.0, 0.0, 0.0, 0.0, 0.0)",20.235,6.99,0.782,"(0.0, 0.0, 0.0, 0.0, 0.0, 0.0, 0.0, 0.0, 0.0)",0,0,0,,-0.4463,0.0981,-0.0306,"(0.0, 0.0, 0.0, 0.0, 0.0, 0.0, 0.0, 0.0, 0.0)"
1677800717.028886,423,1677800716,989791393,imu1_frame,"$VNYMR,+091.865,+061.367,-149.181,-00.4509,+00.0831,-00.0156,+18.976,+09.683,-00.667,+00.053304,+00.027290,-01.051310*60",0,0,0,,-0.67405881387801,-0.5014077391618591,0.506347641654896,-0.19454320942270995,"(0.0, 0.0, 0.0, 0.0, 0.0, 0.0, 0.0, 0.0, 0.0)",0.053304,0.02729,-1.05131,"(0.0, 0.0, 0.0, 0.0, 0.0, 0.0, 0.0, 0.0, 0.0)",18.976,9.683,-0.667,"(0.0, 0.0, 0.0, 0.0, 0.0, 0.0, 0.0, 0.0, 0.0)",0,0,0,,-0.4509,0.0831,-0.0156,"(0.0, 0.0, 0.0, 0.0, 0.0, 0.0, 0.0, 0.0, 0.0)"
1677800717.0289118,424,1677800717,15147209,imu1_frame,"$VNYMR,+094.084,+060.378,-147.066,-00.4543,+00.0727,-00.0120,+16.728,+08.132,-01.677,+00.076170,+00.417215,-00.906836*62",0,0,0,,-0.6691946633540374,-0.5095102078354978,0.5079372348379243,-0.18595057438767879,"(0.0, 0.0, 0.0, 0.0, 0.0, 0.0, 0.0, 0.0, 0.0)",0.07617,0.417215,-0.906836,"(0.0, 0.0, 0.0, 0.0, 0.0, 0.0, 0.0, 0.0, 0.0)",16.728,8.132,-1.677,"(0.0, 0.0, 0.0, 0.0, 0.0, 0.0, 0.0, 0.0, 0.0)",0,0,0,,-0.4543,0.0727,-0.012,"(0.0, 0.0, 0.0, 0.0, 0.0, 0.0, 0.0, 0.0, 0.0)"
1677800717.0727062,425,1677800717,40729045,imu1_frame,"$VNYMR,+092.633,+058.388,-149.643,-00.4552,+00.0702,-00.0373,+14.205,+03.360,-01.170,-01.432569,+02.079249,-00.053520*6B",0,0,0,,-0.6742625507817966,-0.5210747633918095,0.49042910910883164,-0.1825661318758564,"(0.0, 0.0, 0.0, 0.0, 0.0, 0.0, 0.0, 0.0, 0.0)",-1.432569,2.079249,-0.05352,"(0.0, 0.0, 0.0, 0.0, 0.0, 0.0, 0.0, 0.0, 0.0)",14.205,3.36,-1.17,"(0.0, 0.0, 0.0, 0.0, 0.0, 0.0, 0.0, 0.0, 0.0)",0,0,0,,-0.4552,0.0702,-0.0373,"(0.0, 0.0, 0.0, 0.0, 0.0, 0.0, 0.0, 0.0, 0.0)"
1677800717.072728,426,1677800717,65936088,imu1_frame,"$VNYMR,+089.008,+055.566,-154.033,-00.4572,+00.0783,-00.0552,+14.186,+04.938,-02.707,-00.578835,+02.451543,+00.700762*60",0,0,0,,-0.6882594119386202,-0.5296081646360106,0.46327138229569786,-0.17661766665488027,"(0.0, 0.0, 0.0, 0.0, 0.0, 0.0, 0.0, 0.0, 0.0)",-0.578835,2.451543,0.700762,"(0.0, 0.0, 0.0, 0.0, 0.0, 0.0, 0.0, 0.0, 0.0)",14.186,4.938,-2.707,"(0.0, 0.0, 0.0, 0.0, 0.0, 0.0, 0.0, 0.0, 0.0)",0,0,0,,-0.4572,0.0783,-0.0552,"(0.0, 0.0, 0.0, 0.0, 0.0, 0.0, 0.0, 0.0, 0.0)"
1677800717.1165566,427,1677800717,89544534,imu1_frame,"$VNYMR,+084.455,+052.511,-159.043,-00.4480,+00.0874,-00.0837,+14.905,+05.765,-03.365,-00.981628,+02.721880,+00.665281*68",0,0,0,,-0.7070826031401339,-0.5331123048041388,0.4317257008048827,-0.17157616987077104,"(0.0, 0.0, 0.0, 0.0, 0.0, 0.0, 0.0, 0.0, 0.0)",-0.981628,2.72188,0.665281,"(0.0, 0.0, 0.0, 0.0, 0.0, 0.0, 0.0, 0.0, 0.0)",14.905,5.765,-3.365,"(0.0, 0.0, 0.0, 0.0, 0.0, 0.0, 0.0, 0.0, 0.0)",0,0,0,,-0.448,0.0874,-0.0837,"(0.0, 0.0, 0.0, 0.0, 0.0, 0.0, 0.0, 0.0, 0.0)"
1677800717.1173882,428,1677800717,114883184,imu1_frame,"$VNYMR,+082.042,+049.252,-162.239,-00.4455,+00.0872,-00.1202,+14.079,+07.356,-03.279,-00.790542,+02.296469,-00.080295*67",0,0,0,,-0.7198461907184378,-0.5409552516284026,0.40271935590356983,-0.16433501703660122,"(0.0, 0.0, 0.0, 0.0, 0.0, 0.0, 0.0, 0.0, 0.0)",-0.790542,2.296469,-0.080295,"(0.0, 0.0, 0.0, 0.0, 0.0, 0.0, 0.0, 0.0, 0.0)",14.079,7.356,-3.279,"(0.0, 0.0, 0.0, 0.0, 0.0, 0.0, 0.0, 0.0, 0.0)",0,0,0,,-0.4455,0.0872,-0.1202,"(0.0, 0.0, 0.0, 0.0, 0.0, 0.0, 0.0, 0.0, 0.0)"
1677800717.1637425,429,1677800717,140224695,imu1_frame,"$VNYMR,+081.917,+046.695,-162.946,-00.4409,+00.0883,-00.1338,+11.125,+07.435,-03.198,-00.138524,+01.375746,-00.598591*68",0,0,0,,-0.7242040361287742,-0.5508084170752137,0.3852142621398842,-0.15410572337819053,"(0.0, 0.0, 0.0, 0.0, 0.0, 0.0, 0.0, 0.0, 0.0)",-0.138524,1.375746,-0.598591,"(0.0, 0.0, 0.0, 0.0, 0.0, 0.0, 0.0, 0.0, 0.0)",11.125,7.435,-3.198,"(0.0, 0.0, 0.0, 0.0, 0.0, 0.0, 0.0, 0.0, 0.0)",0,0,0,,-0.4409,0.0883,-0.1338,"(0.0, 0.0, 0.0, 0.0, 0.0, 0.0, 0.0, 0.0, 0.0)"
1677800717.2067904,430,1677800717,165586948,imu1_frame,"$VNYMR,+081.013,+043.728,-164.228,-00.4396,+00.0754,-00.1538,+08.230,+04.333,-02.178,-00.948210,+03.015880,+00.179639*63",0,0,0,,-0.7321565312038694,-0.558263709856391,0.3631811227233091,-0.14278626043962833,"(0.0, 0.0, 0.0, 0.0, 0.0, 0.0, 0.0, 0.0, 0.0)",-0.94821,3.01588,0.179639,"(0.0, 0.0, 0.0, 0.0, 0.0, 0.0, 0.0, 0.0, 0.0)",8.23,4.333,-2.178,"(0.0, 0.0, 0.0, 0.0, 0.0, 0.0, 0.0, 0.0, 0.0)",0,0,0,,-0.4396,0.0754,-0.1538,"(0.0, 0.0, 0.0, 0.0, 0.0, 0.0, 0.0, 0.0, 0.0)"
1677800717.2068162,431,1677800717,191030979,imu1_frame,"$VNYMR,+078.303,+038.502,-167.993,-00.4169,+00.0890,-00.1965,+07.893,+03.076,-01.672,-01.508618,+04.189126,+00.732086*67",0,0,0,,-0.7498738092442208,-0.5660581646487782,0.3166211052909333,-0.13045497356699953,"(0.0, 0.0, 0.0, 0.0, 0.0, 0.0, 0.0, 0.0, 0.0)",-1.508618,4.189126,0.732086,"(0.0, 0.0, 0.0, 0.0, 0.0, 0.0, 0.0, 0.0, 0.0)",7.893,3.076,-1.672,"(0.0, 0.0, 0.0, 0.0, 0.0, 0.0, 0.0, 0.0, 0.0)",0,0,0,,-0.4169,0.089,-0.1965,"(0.0, 0.0, 0.0, 0.0, 0.0, 0.0, 0.0, 0.0, 0.0)"
1677800717.2518244,432,1677800717,216393470,imu1_frame,"$VNYMR,+075.167,+032.905,-172.057,-00.3913,+00.1079,-00.2473,+07.726,+02.500,-00.251,-01.492889,+03.995575,+01.201434*66",0,0,0,,-0.7701567105551768,-0.5679942396688171,0.2644167008105997,-0.11968706372164789,"(0.0, 0.0, 0.0, 0.0, 0.0, 0.0, 0.0, 0.0, 0.0)",-1.492889,3.995575,1.201434,"(0.0, 0.0, 0.0, 0.0, 0.0, 0.0, 0.0, 0.0, 0.0)",7.726,2.5,-0.251,"(0.0, 0.0, 0.0, 0.0, 0.0, 0.0, 0.0, 0.0, 0.0)",0,0,0,,-0.3913,0.1079,-0.2473,"(0.0, 0.0, 0.0, 0.0, 0.0, 0.0, 0.0, 0.0, 0.0)"
1677800717.2518752,433,1677800717,239911794,imu1_frame,"$VNYMR,+071.801,+027.628,-175.473,-00.3632,+00.1320,-00.2720,+07.217,+01.783,+03.013,-00.966491,+03.946062,+02.020730*6A",0,0,0,,-0.7915229960762886,-0.5613357866470594,0.21575145973311297,-0.1088337674381148,"(0.0, 0.0, 0.0, 0.0, 0.0, 0.0, 0.0, 0.0, 0.0)",-0.966491,3.946062,2.02073,"(0.0, 0.0, 0.0, 0.0, 0.0, 0.0, 0.0, 0.0, 0.0)",7.217,1.783,3.013,"(0.0, 0.0, 0.0, 0.0, 0.0, 0.0, 0.0, 0.0, 0.0)",0,0,0,,-0.3632,0.132,-0.272,"(0.0, 0.0, 0.0, 0.0, 0.0, 0.0, 0.0, 0.0, 0.0)"
1677800717.2926288,434,1677800717,265276670,imu1_frame,"$VNYMR,+067.655,+021.410,-178.694,-00.3193,+00.1594,-00.3158,+08.518,+01.295,+05.690,-00.871660,+04.938397,+02.487252*6C",0,0,0,,-0.8173855515114059,-0.5452118823781609,0.16053178636753482,-0.09409786958111839,"(0.0, 0.0, 0.0, 0.0, 0.0, 0.0, 0.0, 0.0, 0.0)",-0.87166,4.938397,2.487252,"(0.0, 0.0, 0.0, 0.0, 0.0, 0.0, 0.0, 0.0, 0.0)",8.518,1.295,5.69,"(0.0, 0.0, 0.0, 0.0, 0.0, 0.0, 0.0, 0.0, 0.0)",0,0,0,,-0.3193,0.1594,-0.3158,"(0.0, 0.0, 0.0, 0.0, 0.0, 0.0, 0.0, 0.0, 0.0)"
1677800717.2931302,435,1677800717,290722370,imu1_frame,"$VNYMR,+064.489,+012.995,+179.725,-00.2593,+00.1702,-00.3624,+08.701,+02.348,+05.035,-00.074408,+06.417313,+01.850072*6F",0,0,0,,0.8401991199948298,0.5303344915906557,-0.09443580039675423,0.06239106821187502,"(0.0, 0.0, 0.0, 0.0, 0.0, 0.0, 0.0, 0.0, 0.0)",-0.074408,6.417313,1.850072,"(0.0, 0.0, 0.0, 0.0, 0.0, 0.0, 0.0, 0.0, 0.0)",8.701,2.348,5.035,"(0.0, 0.0, 0.0, 0.0, 0.0, 0.0, 0.0, 0.0, 0.0)",0,0,0,,-0.2593,0.1702,-0.3624,"(0.0, 0.0, 0.0, 0.0, 0.0, 0.0, 0.0, 0.0, 0.0)"
1677800717.3376427,436,1677800717,316173076,imu1_frame,"$VNYMR,+062.321,+003.605,-179.268,-00.1809,+00.1801,-00.4061,+06.752,+02.149,+04.390,+01.624937,+06.505116,+01.317537*6B",0,0,0,,-0.8553842833047762,-0.5169986715674771,0.03021930400672464,-0.010811805491556702,"(0.0, 0.0, 0.0, 0.0, 0.0, 0.0, 0.0, 0.0, 0.0)",1.624937,6.505116,1.317537,"(0.0, 0.0, 0.0, 0.0, 0.0, 0.0, 0.0, 0.0, 0.0)",6.752,2.149,4.39,"(0.0, 0.0, 0.0, 0.0, 0.0, 0.0, 0.0, 0.0, 0.0)",0,0,0,,-0.1809,0.1801,-0.4061,"(0.0, 0.0, 0.0, 0.0, 0.0, 0.0, 0.0, 0.0, 0.0)"
1677800717.3865392,437,1677800717,339600563,imu1_frame,"$VNYMR,+060.147,-005.072,-176.093,-00.0990,+00.1555,-00.4490,+05.982,+01.632,+02.190,+02.188318,+05.867343,+01.213001*66",0,0,0,,-0.8632774606272795,-0.5016340808556309,-0.021203118782680355,0.05163044306346681,"(0.0, 0.0, 0.0, 0.0, 0.0, 0.0, 0.0, 0.0, 0.0)",2.188318,5.867343,1.213001,"(0.0, 0.0, 0.0, 0.0, 0.0, 0.0, 0.0, 0.0, 0.0)",5.982,1.632,2.19,"(0.0, 0.0, 0.0, 0.0, 0.0, 0.0, 0.0, 0.0, 0.0)",0,0,0,,-0.099,0.1555,-0.449,"(0.0, 0.0, 0.0, 0.0, 0.0, 0.0, 0.0, 0.0, 0.0)"
1677800717.3865807,438,1677800717,365076541,imu1_frame,"$VNYMR,+058.065,-012.401,-173.266,-00.0321,+00.1202,-00.4614,+05.675,+02.620,+00.746,+01.545665,+04.769105,+00.730527*69",0,0,0,,-0.8646507040121197,-0.48718017688838466,-0.06593727188036116,0.1033775191969865,"(0.0, 0.0, 0.0, 0.0, 0.0, 0.0, 0.0, 0.0, 0.0)",1.545665,4.769105,0.730527,"(0.0, 0.0, 0.0, 0.0, 0.0, 0.0, 0.0, 0.0, 0.0)",5.675,2.62,0.746,"(0.0, 0.0, 0.0, 0.0, 0.0, 0.0, 0.0, 0.0, 0.0)",0,0,0,,-0.0321,0.1202,-0.4614,"(0.0, 0.0, 0.0, 0.0, 0.0, 0.0, 0.0, 0.0, 0.0)"
1677800717.4336653,439,1677800717,390327215,imu1_frame,"$VNYMR,+057.341,-018.923,-173.813,+00.0249,+00.1198,-00.4787,+03.395,+04.319,-01.690,-02.851896,+05.075267,-00.693767*6C",0,0,0,,-0.8599402343659356,-0.4803389791791523,-0.11848105271355323,0.12545715821617193,"(0.0, 0.0, 0.0, 0.0, 0.0, 0.0, 0.0, 0.0, 0.0)",-2.851896,5.075267,-0.693767,"(0.0, 0.0, 0.0, 0.0, 0.0, 0.0, 0.0, 0.0, 0.0)",3.395,4.319,-1.69,"(0.0, 0.0, 0.0, 0.0, 0.0, 0.0, 0.0, 0.0, 0.0)",0,0,0,,0.0249,0.1198,-0.4787,"(0.0, 0.0, 0.0, 0.0, 0.0, 0.0, 0.0, 0.0, 0.0)"
1677800717.4336941,440,1677800717,415782690,imu1_frame,"$VNYMR,+057.095,-024.642,-177.159,+00.0783,+00.1501,-00.4714,+01.194,+03.246,+03.763,-02.106908,+02.993263,+00.184215*63",0,0,0,,-0.8553972353211988,-0.4713834484979796,-0.1758134689318781,0.12321866104264274,"(0.0, 0.0, 0.0, 0.0, 0.0, 0.0, 0.0, 0.0, 0.0)",-2.106908,2.993263,0.184215,"(0.0, 0.0, 0.0, 0.0, 0.0, 0.0, 0.0, 0.0, 0.0)",1.194,3.246,3.763,"(0.0, 0.0, 0.0, 0.0, 0.0, 0.0, 0.0, 0.0, 0.0)",0,0,0,,0.0783,0.1501,-0.4714,"(0.0, 0.0, 0.0, 0.0, 0.0, 0.0, 0.0, 0.0, 0.0)"
1677800717.4773839,441,1677800717,441224813,imu1_frame,"$VNYMR,+058.157,-027.367,-178.063,+00.1037,+00.1675,-00.4545,+00.739,+02.099,+00.024,-00.224245,+02.070944,-01.156108*62",0,0,0,,-0.847084850203136,-0.4756402817065667,-0.19873005332941757,0.1293056258564008,"(0.0, 0.0, 0.0, 0.0, 0.0, 0.0, 0.0, 0.0, 0.0)",-0.224245,2.070944,-1.156108,"(0.0, 0.0, 0.0, 0.0, 0.0, 0.0, 0.0, 0.0, 0.0)",0.739,2.099,0.024,"(0.0, 0.0, 0.0, 0.0, 0.0, 0.0, 0.0, 0.0, 0.0)",0,0,0,,0.1037,0.1675,-0.4545,"(0.0, 0.0, 0.0, 0.0, 0.0, 0.0, 0.0, 0.0, 0.0)"
1677800717.4774103,442,1677800717,464693069,imu1_frame,"$VNYMR,+060.125,-030.749,-178.709,+00.1294,+00.1661,-00.4690,-00.102,+02.865,+01.334,+00.406111,+02.450836,-01.281878*6B",0,0,0,,-0.8329577670889332,-0.4855717754511809,-0.22400581781595602,0.14220690108433987,"(0.0, 0.0, 0.0, 0.0, 0.0, 0.0, 0.0, 0.0, 0.0)",0.406111,2.450836,-1.281878,"(0.0, 0.0, 0.0, 0.0, 0.0, 0.0, 0.0, 0.0, 0.0)",-0.102,2.865,1.334,"(0.0, 0.0, 0.0, 0.0, 0.0, 0.0, 0.0, 0.0, 0.0)",0,0,0,,0.1294,0.1661,-0.469,"(0.0, 0.0, 0.0, 0.0, 0.0, 0.0, 0.0, 0.0, 0.0)"
1677800717.520846,443,1677800717,490061759,imu1_frame,"$VNYMR,+062.128,-034.598,-179.203,+00.1605,+00.1613,-00.4667,-01.247,+02.115,+03.321,+00.438855,+02.852521,-01.203556*60",0,0,0,,-0.8167574589810478,-0.4944143295851214,-0.2512818904280165,0.15911987758491788,"(0.0, 0.0, 0.0, 0.0, 0.0, 0.0, 0.0, 0.0, 0.0)",0.438855,2.852521,-1.203556,"(0.0, 0.0, 0.0, 0.0, 0.0, 0.0, 0.0, 0.0, 0.0)",-1.247,2.115,3.321,"(0.0, 0.0, 0.0, 0.0, 0.0, 0.0, 0.0, 0.0, 0.0)",0,0,0,,0.1605,0.1613,-0.4667,"(0.0, 0.0, 0.0, 0.0, 0.0, 0.0, 0.0, 0.0, 0.0)"
1677800717.520869,444,1677800717,515501499,imu1_frame,"$VNYMR,+064.246,-039.204,-179.975,+00.2038,+00.1669,-00.4572,-01.008,+01.996,+02.844,+00.264356,+03.423388,-01.248377*6A",0,0,0,,-0.7977876432471404,-0.5009840524636595,-0.284015356429644,0.17856408589468606,"(0.0, 0.0, 0.0, 0.0, 0.0, 0.0, 0.0, 0.0, 0.0)",0.264356,3.423388,-1.248377,"(0.0, 0.0, 0.0, 0.0, 0.0, 0.0, 0.0, 0.0, 0.0)",-1.008,1.996,2.844,"(0.0, 0.0, 0.0, 0.0, 0.0, 0.0, 0.0, 0.0, 0.0)",0,0,0,,0.2038,0.1669,-0.4572,"(0.0, 0.0, 0.0, 0.0, 0.0, 0.0, 0.0, 0.0, 0.0)"
1677800717.5645692,445,1677800717,540838718,imu1_frame,"$VNYMR,+067.171,-044.498,+178.284,+00.2346,+00.1684,-00.4350,-00.148,+00.749,+01.205,+00.066803,+03.878400,-01.616306*68",0,0,0,,0.7740874091711961,0.5072141576393644,0.3230554698054811,-0.19788290649163012,"(0.0, 0.0, 0.0, 0.0, 0.0, 0.0, 0.0, 0.0, 0.0)",0.066803,3.8784,-1.616306,"(0.0, 0.0, 0.0, 0.0, 0.0, 0.0, 0.0, 0.0, 0.0)",-0.148,0.749,1.205,"(0.0, 0.0, 0.0, 0.0, 0.0, 0.0, 0.0, 0.0, 0.0)",0,0,0,,0.2346,0.1684,-0.435,"(0.0, 0.0, 0.0, 0.0, 0.0, 0.0, 0.0, 0.0, 0.0)"
1677800717.5685356,446,1677800717,566215753,imu1_frame,"$VNYMR,+071.056,-050.065,+175.655,+00.2842,+00.1867,-00.4113,-00.531,+00.026,-01.037,+00.195147,+04.031538,-01.608360*66",0,0,0,,0.7461776828901631,0.51308428392848,0.36407021833024283,-0.2177527480130514,"(0.0, 0.0, 0.0, 0.0, 0.0, 0.0, 0.0, 0.0, 0.0)",0.195147,4.031538,-1.60836,"(0.0, 0.0, 0.0, 0.0, 0.0, 0.0, 0.0, 0.0, 0.0)",-0.531,0.026,-1.037,"(0.0, 0.0, 0.0, 0.0, 0.0, 0.0, 0.0, 0.0, 0.0)",0,0,0,,0.2842,0.1867,-0.4113,"(0.0, 0.0, 0.0, 0.0, 0.0, 0.0, 0.0, 0.0, 0.0)"
1677800717.609263,447,1677800717,589758396,imu1_frame,"$VNYMR,+075.767,-055.483,+171.889,+00.3295,+00.1980,-00.3905,-01.408,-00.612,-02.351,-00.226547,+03.887491,-01.486373*66",0,0,0,,0.717006499805468,0.5161325668252149,0.40490391705864787,-0.23571523211216108,"(0.0, 0.0, 0.0, 0.0, 0.0, 0.0, 0.0, 0.0, 0.0)",-0.226547,3.887491,-1.486373,"(0.0, 0.0, 0.0, 0.0, 0.0, 0.0, 0.0, 0.0, 0.0)",-1.408,-0.612,-2.351,"(0.0, 0.0, 0.0, 0.0, 0.0, 0.0, 0.0, 0.0, 0.0)",0,0,0,,0.3295,0.198,-0.3905,"(0.0, 0.0, 0.0, 0.0, 0.0, 0.0, 0.0, 0.0, 0.0)"
1677800717.6532984,448,1677800717,615099430,imu1_frame,"$VNYMR,+080.886,-060.516,+166.359,+00.3623,+00.2235,-00.3492,-00.816,-01.361,-01.950,-01.133841,+03.772013,-00.973342*63",0,0,0,,0.6915368434823521,0.5108086200434979,0.4473187038638561,-0.2464900098772407,"(0.0, 0.0, 0.0, 0.0, 0.0, 0.0, 0.0, 0.0, 0.0)",-1.133841,3.772013,-0.973342,"(0.0, 0.0, 0.0, 0.0, 0.0, 0.0, 0.0, 0.0, 0.0)",-0.816,-1.361,-1.95,"(0.0, 0.0, 0.0, 0.0, 0.0, 0.0, 0.0, 0.0, 0.0)",0,0,0,,0.3623,0.2235,-0.3492,"(0.0, 0.0, 0.0, 0.0, 0.0, 0.0, 0.0, 0.0, 0.0)"
1677800717.6533291,449,1677800717,640662431,imu1_frame,"$VNYMR,+087.932,-065.194,+158.306,+00.3951,+00.2350,-00.3027,-00.232,-01.679,-02.743,-01.295996,+03.790094,-01.252439*6E",0,0,0,,0.6659251290341489,0.5014571781129596,0.49088786810594953,-0.25320648093252945,"(0.0, 0.0, 0.0, 0.0, 0.0, 0.0, 0.0, 0.0, 0.0)",-1.295996,3.790094,-1.252439,"(0.0, 0.0, 0.0, 0.0, 0.0, 0.0, 0.0, 0.0, 0.0)",-0.232,-1.679,-2.743,"(0.0, 0.0, 0.0, 0.0, 0.0, 0.0, 0.0, 0.0, 0.0)",0,0,0,,0.3951,0.235,-0.3027,"(0.0, 0.0, 0.0, 0.0, 0.0, 0.0, 0.0, 0.0, 0.0)"
1677800717.701124,450,1677800717,665994644,imu1_frame,"$VNYMR,+099.119,-068.796,+146.300,+00.4167,+00.2659,-00.2652,-00.192,-00.943,-03.411,-01.099012,+03.457860,-01.760628*6E",0,0,0,,0.6368824220231454,0.4948084289275197,0.5327531335505677,-0.2563581437603706,"(0.0, 0.0, 0.0, 0.0, 0.0, 0.0, 0.0, 0.0, 0.0)",-1.099012,3.45786,-1.760628,"(0.0, 0.0, 0.0, 0.0, 0.0, 0.0, 0.0, 0.0, 0.0)",-0.192,-0.943,-3.411,"(0.0, 0.0, 0.0, 0.0, 0.0, 0.0, 0.0, 0.0, 0.0)",0,0,0,,0.4167,0.2659,-0.2652,"(0.0, 0.0, 0.0, 0.0, 0.0, 0.0, 0.0, 0.0, 0.0)"
1677800717.7011452,451,1677800717,691361427,imu1_frame,"$VNYMR,+114.086,-070.041,+130.981,+00.4262,+00.3027,-00.2162,+01.416,-01.229,-03.796,-00.637876,+02.785036,-02.543195*6D",0,0,0,,0.6051270887682554,0.49573236886262906,0.569124472002803,-0.25331395592867145,"(0.0, 0.0, 0.0, 0.0, 0.0, 0.0, 0.0, 0.0, 0.0)",-0.637876,2.785036,-2.543195,"(0.0, 0.0, 0.0, 0.0, 0.0, 0.0, 0.0, 0.0, 0.0)",1.416,-1.229,-3.796,"(0.0, 0.0, 0.0, 0.0, 0.0, 0.0, 0.0, 0.0, 0.0)",0,0,0,,0.4262,0.3027,-0.2162,"(0.0, 0.0, 0.0, 0.0, 0.0, 0.0, 0.0, 0.0, 0.0)"
1677800717.7411187,452,1677800717,714827060,imu1_frame,"$VNYMR,+129.281,-068.313,+116.311,+00.4132,+00.3442,-00.1791,+01.962,-01.948,-04.934,-00.148917,+02.280194,-03.365516*6B",0,0,0,,0.5687595932757148,0.508340129979738,0.598808306403871,-0.24399067500778512,"(0.0, 0.0, 0.0, 0.0, 0.0, 0.0, 0.0, 0.0, 0.0)",-0.148917,2.280194,-3.365516,"(0.0, 0.0, 0.0, 0.0, 0.0, 0.0, 0.0, 0.0, 0.0)",1.962,-1.948,-4.934,"(0.0, 0.0, 0.0, 0.0, 0.0, 0.0, 0.0, 0.0, 0.0)",0,0,0,,0.4132,0.3442,-0.1791,"(0.0, 0.0, 0.0, 0.0, 0.0, 0.0, 0.0, 0.0, 0.0)"
1677800717.7426407,453,1677800717,740257263,imu1_frame,"$VNYMR,+140.593,-064.467,+105.957,+00.3912,+00.3773,-00.1526,+02.268,-02.818,-05.720,+00.137688,+01.805441,-03.788943*6A",0,0,0,,0.5300465498068789,0.527540772891371,0.6230730568173142,-0.2291971942309217,"(0.0, 0.0, 0.0, 0.0, 0.0, 0.0, 0.0, 0.0, 0.0)",0.137688,1.805441,-3.788943,"(0.0, 0.0, 0.0, 0.0, 0.0, 0.0, 0.0, 0.0, 0.0)",2.268,-2.818,-5.72,"(0.0, 0.0, 0.0, 0.0, 0.0, 0.0, 0.0, 0.0, 0.0)",0,0,0,,0.3912,0.3773,-0.1526,"(0.0, 0.0, 0.0, 0.0, 0.0, 0.0, 0.0, 0.0, 0.0)"
1677800717.7853277,454,1677800717,765640020,imu1_frame,"$VNYMR,+147.226,-059.444,+100.538,+00.3620,+00.4193,-00.1552,+02.844,-03.168,-04.644,+00.482379,+00.905292,-03.946877*62",0,0,0,,0.4924534987246797,0.5513417959055951,0.640115944613134,-0.20919692429252026,"(0.0, 0.0, 0.0, 0.0, 0.0, 0.0, 0.0, 0.0, 0.0)",0.482379,0.905292,-3.946877,"(0.0, 0.0, 0.0, 0.0, 0.0, 0.0, 0.0, 0.0, 0.0)",2.844,-3.168,-4.644,"(0.0, 0.0, 0.0, 0.0, 0.0, 0.0, 0.0, 0.0, 0.0)",0,0,0,,0.362,0.4193,-0.1552,"(0.0, 0.0, 0.0, 0.0, 0.0, 0.0, 0.0, 0.0, 0.0)"
1677800717.829165,455,1677800717,790992975,imu1_frame,"$VNYMR,+149.862,-053.984,+098.993,+00.3217,+00.4536,-00.1412,+04.911,-05.477,-03.444,+00.121840,+00.058603,-03.816214*6A",0,0,0,,0.46079508049969403,0.5776028228151264,0.6485649337456022,-0.18277417645510172,"(0.0, 0.0, 0.0, 0.0, 0.0, 0.0, 0.0, 0.0, 0.0)",0.12184,0.058603,-3.816214,"(0.0, 0.0, 0.0, 0.0, 0.0, 0.0, 0.0, 0.0, 0.0)",4.911,-5.477,-3.444,"(0.0, 0.0, 0.0, 0.0, 0.0, 0.0, 0.0, 0.0, 0.0)",0,0,0,,0.3217,0.4536,-0.1412,"(0.0, 0.0, 0.0, 0.0, 0.0, 0.0, 0.0, 0.0, 0.0)"
1677800717.8291872,456,1677800717,814497947,imu1_frame,"$VNYMR,+151.181,-048.836,+097.740,+00.2652,+00.4719,-00.1332,+06.341,-08.567,-05.103,-00.140631,+00.282757,-03.570430*65",0,0,0,,0.43403504887980926,0.59660474248631,0.6575788764985995,-0.1525332054655149,"(0.0, 0.0, 0.0, 0.0, 0.0, 0.0, 0.0, 0.0, 0.0)",-0.140631,0.282757,-3.57043,"(0.0, 0.0, 0.0, 0.0, 0.0, 0.0, 0.0, 0.0, 0.0)",6.341,-8.567,-5.103,"(0.0, 0.0, 0.0, 0.0, 0.0, 0.0, 0.0, 0.0, 0.0)",0,0,0,,0.2652,0.4719,-0.1332,"(0.0, 0.0, 0.0, 0.0, 0.0, 0.0, 0.0, 0.0, 0.0)"
1677800717.8740141,457,1677800717,839904069,imu1_frame,"$VNYMR,+153.873,-043.693,+095.389,+00.2285,+00.4957,-00.1325,+06.177,-09.580,-05.466,-00.352912,+01.149449,-03.905105*64",0,0,0,,0.3991463030000174,0.6120749211029689,0.6707826913000433,-0.12687435048300183,"(0.0, 0.0, 0.0, 0.0, 0.0, 0.0, 0.0, 0.0, 0.0)",-0.352912,1.149449,-3.905105,"(0.0, 0.0, 0.0, 0.0, 0.0, 0.0, 0.0, 0.0, 0.0)",6.177,-9.58,-5.466,"(0.0, 0.0, 0.0, 0.0, 0.0, 0.0, 0.0, 0.0, 0.0)",0,0,0,,0.2285,0.4957,-0.1325,"(0.0, 0.0, 0.0, 0.0, 0.0, 0.0, 0.0, 0.0, 0.0)"
1677800717.8740377,458,1677800717,865247964,imu1_frame,"$VNYMR,+156.610,-037.955,+092.655,+00.1712,+00.5242,-00.1027,+05.826,-10.509,-06.029,-00.757379,+01.132286,-04.006146*66",0,0,0,,0.3585431138618975,0.6242668585671037,0.6871246189596211,-0.09796674342127387,"(0.0, 0.0, 0.0, 0.0, 0.0, 0.0, 0.0, 0.0, 0.0)",-0.757379,1.132286,-4.006146,"(0.0, 0.0, 0.0, 0.0, 0.0, 0.0, 0.0, 0.0, 0.0)",5.826,-10.509,-6.029,"(0.0, 0.0, 0.0, 0.0, 0.0, 0.0, 0.0, 0.0, 0.0)",0,0,0,,0.1712,0.5242,-0.1027,"(0.0, 0.0, 0.0, 0.0, 0.0, 0.0, 0.0, 0.0, 0.0)"
1677800717.9167554,459,1677800717,890611410,imu1_frame,"$VNYMR,+158.441,-033.016,+089.738,+00.1214,+00.5316,-00.0880,+06.733,-13.787,-05.915,-01.156202,+00.920907,-03.016031*6D",0,0,0,,0.32433764286438593,0.6268077274548798,0.7050104835378617,-0.06983827264282574,"(0.0, 0.0, 0.0, 0.0, 0.0, 0.0, 0.0, 0.0, 0.0)",-1.156202,0.920907,-3.016031,"(0.0, 0.0, 0.0, 0.0, 0.0, 0.0, 0.0, 0.0, 0.0)",6.733,-13.787,-5.915,"(0.0, 0.0, 0.0, 0.0, 0.0, 0.0, 0.0, 0.0, 0.0)",0,0,0,,0.1214,0.5316,-0.088,"(0.0, 0.0, 0.0, 0.0, 0.0, 0.0, 0.0, 0.0, 0.0)"
1677800717.91839,460,1677800717,916078090,imu1_frame,"$VNYMR,+158.064,-029.188,+090.763,+00.0763,+00.5308,-00.0791,+07.640,-13.487,-06.564,+00.974625,-01.068536,-02.717876*61",0,0,0,,0.30480323741105897,0.6425790117720521,0.7014282592076959,-0.04675037196271217,"(0.0, 0.0, 0.0, 0.0, 0.0, 0.0, 0.0, 0.0, 0.0)",0.974625,-1.068536,-2.717876,"(0.0, 0.0, 0.0, 0.0, 0.0, 0.0, 0.0, 0.0, 0.0)",7.64,-13.487,-6.564,"(0.0, 0.0, 0.0, 0.0, 0.0, 0.0, 0.0, 0.0, 0.0)",0,0,0,,0.0763,0.5308,-0.0791,"(0.0, 0.0, 0.0, 0.0, 0.0, 0.0, 0.0, 0.0, 0.0)"
1677800717.9650388,461,1677800717,939572334,imu1_frame,"$VNYMR,+155.133,-024.439,+091.530,+00.0303,+00.5254,-00.0837,+05.059,-17.244,-10.474,-01.944895,-02.449884,-03.553029*67",0,0,0,,0.29495853993178844,0.6520379556345911,0.6984585037551357,-0.0012971758969070046,"(0.0, 0.0, 0.0, 0.0, 0.0, 0.0, 0.0, 0.0, 0.0)",-1.944895,-2.449884,-3.553029,"(0.0, 0.0, 0.0, 0.0, 0.0, 0.0, 0.0, 0.0, 0.0)",5.059,-17.244,-10.474,"(0.0, 0.0, 0.0, 0.0, 0.0, 0.0, 0.0, 0.0, 0.0)",0,0,0,,0.0303,0.5254,-0.0837,"(0.0, 0.0, 0.0, 0.0, 0.0, 0.0, 0.0, 0.0, 0.0)"
1677800718.0093703,462,1677800717,964939117,imu1_frame,"$VNYMR,+152.949,-018.199,+090.947,-00.0365,+00.5192,-00.0509,+02.443,-22.113,-08.563,-01.089513,-00.945058,-04.301857*60",0,0,0,,0.2724643111083912,0.6584934191886656,0.6995801456815166,0.05231859923276033,"(0.0, 0.0, 0.0, 0.0, 0.0, 0.0, 0.0, 0.0, 0.0)",-1.089513,-0.945058,-4.301857,"(0.0, 0.0, 0.0, 0.0, 0.0, 0.0, 0.0, 0.0, 0.0)",2.443,-22.113,-8.563,"(0.0, 0.0, 0.0, 0.0, 0.0, 0.0, 0.0, 0.0, 0.0)",0,0,0,,-0.0365,0.5192,-0.0509,"(0.0, 0.0, 0.0, 0.0, 0.0, 0.0, 0.0, 0.0, 0.0)"
1677800718.0093827,463,1677800717,990411996,imu1_frame,"$VNYMR,+152.900,-012.730,+089.854,-00.0906,+00.5082,-00.0465,+05.007,-19.878,-07.848,-00.404247,+00.291601,-03.582837*6D",0,0,0,,0.24074586971926926,0.6639266941749647,0.7024006831500679,0.08874711987063773,"(0.0, 0.0, 0.0, 0.0, 0.0, 0.0, 0.0, 0.0, 0.0)",-0.404247,0.291601,-3.582837,"(0.0, 0.0, 0.0, 0.0, 0.0, 0.0, 0.0, 0.0, 0.0)",5.007,-19.878,-7.848,"(0.0, 0.0, 0.0, 0.0, 0.0, 0.0, 0.0, 0.0, 0.0)",0,0,0,,-0.0906,0.5082,-0.0465,"(0.0, 0.0, 0.0, 0.0, 0.0, 0.0, 0.0, 0.0, 0.0)"
1677800718.0662465,464,1677800718,15712738,imu1_frame,"$VNYMR,+152.717,-007.184,+090.679,-00.1334,+00.4961,-00.0410,+03.860,-17.642,-07.124,+00.967449,-00.578038,-04.206814*68",0,0,0,,0.21021952570364316,0.6794751576648617,0.6922439181557364,0.12214589189015299,"(0.0, 0.0, 0.0, 0.0, 0.0, 0.0, 0.0, 0.0, 0.0)",0.967449,-0.578038,-4.206814,"(0.0, 0.0, 0.0, 0.0, 0.0, 0.0, 0.0, 0.0, 0.0)",3.86,-17.642,-7.124,"(0.0, 0.0, 0.0, 0.0, 0.0, 0.0, 0.0, 0.0, 0.0)",0,0,0,,-0.1334,0.4961,-0.041,"(0.0, 0.0, 0.0, 0.0, 0.0, 0.0, 0.0, 0.0, 0.0)"
1677800718.0663197,465,1677800718,41088342,imu1_frame,"$VNYMR,+150.167,-000.467,+093.091,-00.1880,+00.4596,-00.0460,+03.458,-19.630,-04.779,+02.112952,-02.768723,-04.817691*6B",0,0,0,,0.18956697218052457,0.700731367056385,0.6653575582649098,0.17418161194958331,"(0.0, 0.0, 0.0, 0.0, 0.0, 0.0, 0.0, 0.0, 0.0)",2.112952,-2.768723,-4.817691,"(0.0, 0.0, 0.0, 0.0, 0.0, 0.0, 0.0, 0.0, 0.0)",3.458,-19.63,-4.779,"(0.0, 0.0, 0.0, 0.0, 0.0, 0.0, 0.0, 0.0, 0.0)",0,0,0,,-0.188,0.4596,-0.046,"(0.0, 0.0, 0.0, 0.0, 0.0, 0.0, 0.0, 0.0, 0.0)"
1677800718.1165829,466,1677800718,64723253,imu1_frame,"$VNYMR,+146.328,+006.550,+096.386,-00.2484,+00.4089,-00.0648,+05.079,-19.447,-06.079,+02.601078,-03.007498,-04.510466*66",0,0,0,,0.17908764433527483,0.7233102133499152,0.6246749750337955,0.23351900667112557,"(0.0, 0.0, 0.0, 0.0, 0.0, 0.0, 0.0, 0.0, 0.0)",2.601078,-3.007498,-4.510466,"(0.0, 0.0, 0.0, 0.0, 0.0, 0.0, 0.0, 0.0, 0.0)",5.079,-19.447,-6.079,"(0.0, 0.0, 0.0, 0.0, 0.0, 0.0, 0.0, 0.0, 0.0)",0,0,0,,-0.2484,0.4089,-0.0648,"(0.0, 0.0, 0.0, 0.0, 0.0, 0.0, 0.0, 0.0, 0.0)"
1677800718.116696,467,1677800718,90006828,imu1_frame,"$VNYMR,+142.931,+013.750,+099.619,-00.2870,+00.3857,-00.0590,+04.570,-18.096,-07.650,+02.636598,-03.213868,-04.830087*60",0,0,0,,0.16783835992237406,0.7436288250876943,0.57839262866572,0.2903591268453975,"(0.0, 0.0, 0.0, 0.0, 0.0, 0.0, 0.0, 0.0, 0.0)",2.636598,-3.213868,-4.830087,"(0.0, 0.0, 0.0, 0.0, 0.0, 0.0, 0.0, 0.0, 0.0)",4.57,-18.096,-7.65,"(0.0, 0.0, 0.0, 0.0, 0.0, 0.0, 0.0, 0.0, 0.0)",0,0,0,,-0.287,0.3857,-0.059,"(0.0, 0.0, 0.0, 0.0, 0.0, 0.0, 0.0, 0.0, 0.0)"
1677800718.1568108,468,1677800718,115430831,imu1_frame,"$VNYMR,+138.780,+022.241,+102.345,-00.3386,+00.3268,-00.0501,+05.882,-17.984,-04.766,+03.112767,-04.324382,-05.682088*69",0,0,0,,0.1558884934060276,0.7580529965287477,0.5229405628407172,0.3571940646388446,"(0.0, 0.0, 0.0, 0.0, 0.0, 0.0, 0.0, 0.0, 0.0)",3.112767,-4.324382,-5.682088,"(0.0, 0.0, 0.0, 0.0, 0.0, 0.0, 0.0, 0.0, 0.0)",5.882,-17.984,-4.766,"(0.0, 0.0, 0.0, 0.0, 0.0, 0.0, 0.0, 0.0, 0.0)",0,0,0,,-0.3386,0.3268,-0.0501,"(0.0, 0.0, 0.0, 0.0, 0.0, 0.0, 0.0, 0.0, 0.0)"
1677800718.1568305,469,1677800718,140814781,imu1_frame,"$VNYMR,+133.081,+031.908,+105.053,-00.3848,+00.2549,-00.0298,+08.213,-18.631,-01.036,+03.945824,-05.206647,-05.552921*64",0,0,0,,0.15037321041573223,0.7665654369725006,0.4497660246170489,0.4329848167414202,"(0.0, 0.0, 0.0, 0.0, 0.0, 0.0, 0.0, 0.0, 0.0)",3.945824,-5.206647,-5.552921,"(0.0, 0.0, 0.0, 0.0, 0.0, 0.0, 0.0, 0.0, 0.0)",8.213,-18.631,-1.036,"(0.0, 0.0, 0.0, 0.0, 0.0, 0.0, 0.0, 0.0, 0.0)",0,0,0,,-0.3848,0.2549,-0.0298,"(0.0, 0.0, 0.0, 0.0, 0.0, 0.0, 0.0, 0.0, 0.0)"
1677800718.2033653,470,1677800718,166178226,imu1_frame,"$VNYMR,+127.268,+041.688,+107.191,-00.4157,+00.2096,-00.0216,+09.550,-14.673,-01.704,+03.974592,-04.890570,-05.613539*67",0,0,0,,0.14483414999727126,0.767711597393335,0.3697596907517009,0.5029112678371288,"(0.0, 0.0, 0.0, 0.0, 0.0, 0.0, 0.0, 0.0, 0.0)",3.974592,-4.89057,-5.613539,"(0.0, 0.0, 0.0, 0.0, 0.0, 0.0, 0.0, 0.0, 0.0)",9.55,-14.673,-1.704,"(0.0, 0.0, 0.0, 0.0, 0.0, 0.0, 0.0, 0.0, 0.0)",0,0,0,,-0.4157,0.2096,-0.0216,"(0.0, 0.0, 0.0, 0.0, 0.0, 0.0, 0.0, 0.0, 0.0)"
1677800718.2034209,471,1677800718,189704656,imu1_frame,"$VNYMR,+120.586,+050.981,+108.178,-00.4356,+00.1482,+00.0264,+13.872,-14.791,-04.299,+04.106770,-05.281576,-04.924021*6B",0,0,0,,0.1430575990683803,0.7600916391710041,0.287115211473019,0.5651195260756172,"(0.0, 0.0, 0.0, 0.0, 0.0, 0.0, 0.0, 0.0, 0.0)",4.10677,-5.281576,-4.924021,"(0.0, 0.0, 0.0, 0.0, 0.0, 0.0, 0.0, 0.0, 0.0)",13.872,-14.791,-4.299,"(0.0, 0.0, 0.0, 0.0, 0.0, 0.0, 0.0, 0.0, 0.0)",0,0,0,,-0.4356,0.1482,0.0264,"(0.0, 0.0, 0.0, 0.0, 0.0, 0.0, 0.0, 0.0, 0.0)"
1677800718.2454982,472,1677800718,215139627,imu1_frame,"$VNYMR,+111.206,+059.758,+105.899,-00.4523,+00.0928,+00.0753,+14.152,-18.002,-01.966,+03.777576,-05.299118,-04.608184*6D",0,0,0,,0.14326643660762686,0.7405813535990265,0.20647169114528857,0.6232041620518838,"(0.0, 0.0, 0.0, 0.0, 0.0, 0.0, 0.0, 0.0, 0.0)",3.777576,-5.299118,-4.608184,"(0.0, 0.0, 0.0, 0.0, 0.0, 0.0, 0.0, 0.0, 0.0)",14.152,-18.002,-1.966,"(0.0, 0.0, 0.0, 0.0, 0.0, 0.0, 0.0, 0.0, 0.0)",0,0,0,,-0.4523,0.0928,0.0753,"(0.0, 0.0, 0.0, 0.0, 0.0, 0.0, 0.0, 0.0, 0.0)"
1677800718.2455177,473,1677800718,240545511,imu1_frame,"$VNYMR,+098.709,+066.826,+101.468,-00.4462,+00.0524,+00.1068,+16.402,-18.059,+02.618,+05.398009,-04.808193,-02.836669*61",0,0,0,,0.1565067528008588,0.717374417322564,0.12315411949158545,0.6676171391981296,"(0.0, 0.0, 0.0, 0.0, 0.0, 0.0, 0.0, 0.0, 0.0)",5.398009,-4.808193,-2.836669,"(0.0, 0.0, 0.0, 0.0, 0.0, 0.0, 0.0, 0.0, 0.0)",16.402,-18.059,2.618,"(0.0, 0.0, 0.0, 0.0, 0.0, 0.0, 0.0, 0.0, 0.0)",0,0,0,,-0.4462,0.0524,0.1068,"(0.0, 0.0, 0.0, 0.0, 0.0, 0.0, 0.0, 0.0, 0.0)"
1677800718.2893589,474,1677800718,265013933,imu1_frame,"$VNYMR,+081.682,+069.936,+093.990,-00.4453,+00.0607,+00.1612,+16.261,-17.095,+01.277,+05.995204,-04.435977,-00.912433*6D",0,0,0,,0.19773255801145784,0.6876319013338756,0.04844516824276984,0.6969341930513485,"(0.0, 0.0, 0.0, 0.0, 0.0, 0.0, 0.0, 0.0, 0.0)",5.995204,-4.435977,-0.912433,"(0.0, 0.0, 0.0, 0.0, 0.0, 0.0, 0.0, 0.0, 0.0)",16.261,-17.095,1.277,"(0.0, 0.0, 0.0, 0.0, 0.0, 0.0, 0.0, 0.0, 0.0)",0,0,0,,-0.4453,0.0607,0.1612,"(0.0, 0.0, 0.0, 0.0, 0.0, 0.0, 0.0, 0.0, 0.0)"
1677800718.2925699,475,1677800718,290377616,imu1_frame,"$VNYMR,+063.135,+070.556,+085.940,-00.4282,+00.0676,+00.1907,+18.271,-13.321,-03.790,+07.166018,-04.328341,-00.252082*66",0,0,0,,0.25287311333871054,0.6513607803121961,-0.022701789030625252,0.7150307344417327,"(0.0, 0.0, 0.0, 0.0, 0.0, 0.0, 0.0, 0.0, 0.0)",7.166018,-4.328341,-0.252082,"(0.0, 0.0, 0.0, 0.0, 0.0, 0.0, 0.0, 0.0, 0.0)",18.271,-13.321,-3.79,"(0.0, 0.0, 0.0, 0.0, 0.0, 0.0, 0.0, 0.0, 0.0)",0,0,0,,-0.4282,0.0676,0.1907,"(0.0, 0.0, 0.0, 0.0, 0.0, 0.0, 0.0, 0.0, 0.0)"
1677800718.339566,476,1677800718,315709114,imu1_frame,"$VNYMR,+047.906,+070.237,+082.055,-00.4143,+00.0877,+00.2256,+21.115,-06.082,-05.935,+07.031025,-02.878184,+00.085755*60",0,0,0,,0.31449760466804566,0.6145914584979433,-0.09457649870174673,0.7172334917533835,"(0.0, 0.0, 0.0, 0.0, 0.0, 0.0, 0.0, 0.0, 0.0)",7.031025,-2.878184,0.085755,"(0.0, 0.0, 0.0, 0.0, 0.0, 0.0, 0.0, 0.0, 0.0)",21.115,-6.082,-5.935,"(0.0, 0.0, 0.0, 0.0, 0.0, 0.0, 0.0, 0.0, 0.0)",0,0,0,,-0.4143,0.0877,0.2256,"(0.0, 0.0, 0.0, 0.0, 0.0, 0.0, 0.0, 0.0, 0.0)"
1677800718.3812337,477,1677800718,341077089,imu1_frame,"$VNYMR,+038.509,+068.894,+082.584,-00.4079,+00.1139,+00.2456,+24.109,-02.871,-03.009,+06.139877,-02.549600,+00.974955*66",0,0,0,,0.3735937732451621,0.5806793782257373,-0.1480628883185065,0.7080370988857825,"(0.0, 0.0, 0.0, 0.0, 0.0, 0.0, 0.0, 0.0, 0.0)",6.139877,-2.5496,0.974955,"(0.0, 0.0, 0.0, 0.0, 0.0, 0.0, 0.0, 0.0, 0.0)",24.109,-2.871,-3.009,"(0.0, 0.0, 0.0, 0.0, 0.0, 0.0, 0.0, 0.0, 0.0)",0,0,0,,-0.4079,0.1139,0.2456,"(0.0, 0.0, 0.0, 0.0, 0.0, 0.0, 0.0, 0.0, 0.0)"
1677800718.3812556,478,1677800718,364671945,imu1_frame,"$VNYMR,+025.865,+065.924,+078.350,-00.3854,+00.1526,+00.2702,+21.189,-03.549,-04.051,+04.074770,-03.489324,+01.780161*6E",0,0,0,,0.42216831638348357,0.5297026423560244,-0.18940510783875691,0.710854927849255,"(0.0, 0.0, 0.0, 0.0, 0.0, 0.0, 0.0, 0.0, 0.0)",4.07477,-3.489324,1.780161,"(0.0, 0.0, 0.0, 0.0, 0.0, 0.0, 0.0, 0.0, 0.0)",21.189,-3.549,-4.051,"(0.0, 0.0, 0.0, 0.0, 0.0, 0.0, 0.0, 0.0, 0.0)",0,0,0,,-0.3854,0.1526,0.2702,"(0.0, 0.0, 0.0, 0.0, 0.0, 0.0, 0.0, 0.0, 0.0)"
1677800718.4245965,479,1677800718,390106201,imu1_frame,"$VNYMR,+020.658,+062.868,+077.380,-00.3658,+00.1889,+00.2775,+20.466,-03.619,-03.304,+02.077207,-01.290332,+01.672548*62",0,0,0,,0.45173658661306987,0.49609992858158947,-0.20130807378167082,0.7136483564100932,"(0.0, 0.0, 0.0, 0.0, 0.0, 0.0, 0.0, 0.0, 0.0)",2.077207,-1.290332,1.672548,"(0.0, 0.0, 0.0, 0.0, 0.0, 0.0, 0.0, 0.0, 0.0)",20.466,-3.619,-3.304,"(0.0, 0.0, 0.0, 0.0, 0.0, 0.0, 0.0, 0.0, 0.0)",0,0,0,,-0.3658,0.1889,0.2775,"(0.0, 0.0, 0.0, 0.0, 0.0, 0.0, 0.0, 0.0, 0.0)"
1677800718.4246216,480,1677800718,415416002,imu1_frame,"$VNYMR,+018.850,+060.520,+078.375,-00.3528,+00.2218,+00.2931,+19.992,-04.577,-03.619,+01.572846,-00.465446,+01.211674*63",0,0,0,,0.4744398003873609,0.474683583603733,-0.20448080532686663,0.7125798001055006,"(0.0, 0.0, 0.0, 0.0, 0.0, 0.0, 0.0, 0.0, 0.0)",1.572846,-0.465446,1.211674,"(0.0, 0.0, 0.0, 0.0, 0.0, 0.0, 0.0, 0.0, 0.0)",19.992,-4.577,-3.619,"(0.0, 0.0, 0.0, 0.0, 0.0, 0.0, 0.0, 0.0, 0.0)",0,0,0,,-0.3528,0.2218,0.2931,"(0.0, 0.0, 0.0, 0.0, 0.0, 0.0, 0.0, 0.0, 0.0)"
1677800718.4685926,481,1677800718,440816879,imu1_frame,"$VNYMR,+017.950,+059.215,+080.323,-00.3471,+00.2236,+00.2888,+20.905,-04.324,-03.892,+02.244066,-00.672456,+00.618666*68",0,0,0,,0.49496621150991943,0.4604256361634162,-0.21108151729846292,0.7060179006810025,"(0.0, 0.0, 0.0, 0.0, 0.0, 0.0, 0.0, 0.0, 0.0)",2.244066,-0.672456,0.618666,"(0.0, 0.0, 0.0, 0.0, 0.0, 0.0, 0.0, 0.0, 0.0)",20.905,-4.324,-3.892,"(0.0, 0.0, 0.0, 0.0, 0.0, 0.0, 0.0, 0.0, 0.0)",0,0,0,,-0.3471,0.2236,0.2888,"(0.0, 0.0, 0.0, 0.0, 0.0, 0.0, 0.0, 0.0, 0.0)"
1677800718.4686124,482,1677800718,466237783,imu1_frame,"$VNYMR,+015.976,+058.266,+082.415,-00.3404,+00.2439,+00.2767,+20.224,-03.839,-04.425,+02.827102,-00.815323,+00.584221*66",0,0,0,,0.5189646010995357,0.4426760855106774,-0.22628972324841234,0.6953463793496736,"(0.0, 0.0, 0.0, 0.0, 0.0, 0.0, 0.0, 0.0, 0.0)",2.827102,-0.815323,0.584221,"(0.0, 0.0, 0.0, 0.0, 0.0, 0.0, 0.0, 0.0, 0.0)",20.224,-3.839,-4.425,"(0.0, 0.0, 0.0, 0.0, 0.0, 0.0, 0.0, 0.0, 0.0)",0,0,0,,-0.3404,0.2439,0.2767,"(0.0, 0.0, 0.0, 0.0, 0.0, 0.0, 0.0, 0.0, 0.0)"
1677800718.5131667,483,1677800718,489723682,imu1_frame,"$VNYMR,+014.702,+057.031,+085.264,-00.3360,+00.2722,+00.2768,+19.227,-03.170,-03.964,+02.580207,-00.374903,+00.968880*6E",0,0,0,,0.5452936431273407,0.4244874553539797,-0.2379630585203369,0.6825238646316055,"(0.0, 0.0, 0.0, 0.0, 0.0, 0.0, 0.0, 0.0, 0.0)",2.580207,-0.374903,0.96888,"(0.0, 0.0, 0.0, 0.0, 0.0, 0.0, 0.0, 0.0, 0.0)",19.227,-3.17,-3.964,"(0.0, 0.0, 0.0, 0.0, 0.0, 0.0, 0.0, 0.0, 0.0)",0,0,0,,-0.336,0.2722,0.2768,"(0.0, 0.0, 0.0, 0.0, 0.0, 0.0, 0.0, 0.0, 0.0)"
1677800718.5173035,484,1677800718,515083789,imu1_frame,"$VNYMR,+014.827,+055.209,+088.663,-00.3305,+00.2835,+00.2685,+18.528,-03.003,-03.368,+02.184815,+00.199889,+01.470503*6F",0,0,0,,0.571318089296138,0.408581613162587,-0.23930771464332323,0.6703644709713202,"(0.0, 0.0, 0.0, 0.0, 0.0, 0.0, 0.0, 0.0, 0.0)",2.184815,0.199889,1.470503,"(0.0, 0.0, 0.0, 0.0, 0.0, 0.0, 0.0, 0.0, 0.0)",18.528,-3.003,-3.368,"(0.0, 0.0, 0.0, 0.0, 0.0, 0.0, 0.0, 0.0, 0.0)",0,0,0,,-0.3305,0.2835,0.2685,"(0.0, 0.0, 0.0, 0.0, 0.0, 0.0, 0.0, 0.0, 0.0)"
1677800718.5606945,485,1677800718,540585279,imu1_frame,"$VNYMR,+015.792,+052.898,+092.665,-00.3237,+00.3106,+00.2502,+17.520,-02.209,-03.541,+02.374825,+00.485438,+01.614094*6B",0,0,0,,0.5992574767800712,0.3935918951518106,-0.23420455156178827,0.6566004299585328,"(0.0, 0.0, 0.0, 0.0, 0.0, 0.0, 0.0, 0.0, 0.0)",2.374825,0.485438,1.614094,"(0.0, 0.0, 0.0, 0.0, 0.0, 0.0, 0.0, 0.0, 0.0)",17.52,-2.209,-3.541,"(0.0, 0.0, 0.0, 0.0, 0.0, 0.0, 0.0, 0.0, 0.0)",0,0,0,,-0.3237,0.3106,0.2502,"(0.0, 0.0, 0.0, 0.0, 0.0, 0.0, 0.0, 0.0, 0.0)"
1677800718.605003,486,1677800718,565852165,imu1_frame,"$VNYMR,+016.462,+050.769,+096.896,-00.3157,+00.3365,+00.2098,+16.586,-00.442,-04.110,+02.709775,+00.413553,+01.311159*63",0,0,0,,0.6284279914192707,0.37821491809436697,-0.23171518535480146,0.6390147167378873,"(0.0, 0.0, 0.0, 0.0, 0.0, 0.0, 0.0, 0.0, 0.0)",2.709775,0.413553,1.311159,"(0.0, 0.0, 0.0, 0.0, 0.0, 0.0, 0.0, 0.0, 0.0)",16.586,-0.442,-4.11,"(0.0, 0.0, 0.0, 0.0, 0.0, 0.0, 0.0, 0.0, 0.0)",0,0,0,,-0.3157,0.3365,0.2098,"(0.0, 0.0, 0.0, 0.0, 0.0, 0.0, 0.0, 0.0, 0.0)"
1677800718.605023,487,1677800718,589434623,imu1_frame,"$VNYMR,+016.834,+049.251,+101.314,-00.3129,+00.3517,+00.1993,+15.430,+00.127,-05.730,+02.886203,+00.232254,+00.795364*69",0,0,0,,0.65678816750952,0.3642239504694321,-0.2344215360573445,0.6172655509231361,"(0.0, 0.0, 0.0, 0.0, 0.0, 0.0, 0.0, 0.0, 0.0)",2.886203,0.232254,0.795364,"(0.0, 0.0, 0.0, 0.0, 0.0, 0.0, 0.0, 0.0, 0.0)",15.43,0.127,-5.73,"(0.0, 0.0, 0.0, 0.0, 0.0, 0.0, 0.0, 0.0, 0.0)",0,0,0,,-0.3129,0.3517,0.1993,"(0.0, 0.0, 0.0, 0.0, 0.0, 0.0, 0.0, 0.0, 0.0)"
1677800718.652033,488,1677800718,614856004,imu1_frame,"$VNYMR,+016.995,+048.446,+105.146,-00.3148,+00.3640,+00.1794,+13.351,-01.152,-06.123,+02.367310,+00.227327,+00.358844*62",0,0,0,,0.6794135247486222,0.35362971463175275,-0.2403473270646645,0.5963023140077436,"(0.0, 0.0, 0.0, 0.0, 0.0, 0.0, 0.0, 0.0, 0.0)",2.36731,0.227327,0.358844,"(0.0, 0.0, 0.0, 0.0, 0.0, 0.0, 0.0, 0.0, 0.0)",13.351,-1.152,-6.123,"(0.0, 0.0, 0.0, 0.0, 0.0, 0.0, 0.0, 0.0, 0.0)",0,0,0,,-0.3148,0.364,0.1794,"(0.0, 0.0, 0.0, 0.0, 0.0, 0.0, 0.0, 0.0, 0.0)"
1677800718.6520586,489,1677800718,640150785,imu1_frame,"$VNYMR,+017.611,+047.750,+108.924,-00.3145,+00.3684,+00.1499,+12.651,-00.339,-04.403,+02.202505,+00.645658,+00.633896*64",0,0,0,,0.6993168383592429,0.34638827651752113,-0.24410612536231957,0.5756590319269291,"(0.0, 0.0, 0.0, 0.0, 0.0, 0.0, 0.0, 0.0, 0.0)",2.202505,0.645658,0.633896,"(0.0, 0.0, 0.0, 0.0, 0.0, 0.0, 0.0, 0.0, 0.0)",12.651,-0.339,-4.403,"(0.0, 0.0, 0.0, 0.0, 0.0, 0.0, 0.0, 0.0, 0.0)",0,0,0,,-0.3145,0.3684,0.1499,"(0.0, 0.0, 0.0, 0.0, 0.0, 0.0, 0.0, 0.0, 0.0)"
1677800718.6927507,490,1677800718,665562868,imu1_frame,"$VNYMR,+019.586,+045.303,+112.586,-00.3175,+00.3886,+00.1299,+13.500,+00.599,-01.161,+01.068794,+02.264944,+01.515742*69",0,0,0,,0.7201795761675212,0.34118988419692176,-0.2286024210343434,0.5591706126846236,"(0.0, 0.0, 0.0, 0.0, 0.0, 0.0, 0.0, 0.0, 0.0)",1.068794,2.264944,1.515742,"(0.0, 0.0, 0.0, 0.0, 0.0, 0.0, 0.0, 0.0, 0.0)",13.5,0.599,-1.161,"(0.0, 0.0, 0.0, 0.0, 0.0, 0.0, 0.0, 0.0, 0.0)",0,0,0,,-0.3175,0.3886,0.1299,"(0.0, 0.0, 0.0, 0.0, 0.0, 0.0, 0.0, 0.0, 0.0)"
1677800718.693509,491,1677800718,690938472,imu1_frame,"$VNYMR,+023.545,+041.261,+116.959,-00.3074,+00.4007,+00.0875,+11.207,+00.402,-00.736,+01.405031,+03.293968,+01.802746*60",0,0,0,,0.7434234705891902,0.34309937993503503,-0.19421005633541438,0.5402655022148952,"(0.0, 0.0, 0.0, 0.0, 0.0, 0.0, 0.0, 0.0, 0.0)",1.405031,3.293968,1.802746,"(0.0, 0.0, 0.0, 0.0, 0.0, 0.0, 0.0, 0.0, 0.0)",11.207,0.402,-0.736,"(0.0, 0.0, 0.0, 0.0, 0.0, 0.0, 0.0, 0.0, 0.0)",0,0,0,,-0.3074,0.4007,0.0875,"(0.0, 0.0, 0.0, 0.0, 0.0, 0.0, 0.0, 0.0, 0.0)"
1677800718.7407897,492,1677800718,716475248,imu1_frame,"$VNYMR,+027.123,+036.757,+122.137,-00.2995,+00.4015,+00.0528,+09.522,-00.893,-01.805,+02.429756,+03.146795,+01.702864*6F",0,0,0,,0.7716357123877378,0.3430314415258784,-0.16059903936958192,0.5109948199797272,"(0.0, 0.0, 0.0, 0.0, 0.0, 0.0, 0.0, 0.0, 0.0)",2.429756,3.146795,1.702864,"(0.0, 0.0, 0.0, 0.0, 0.0, 0.0, 0.0, 0.0, 0.0)",9.522,-0.893,-1.805,"(0.0, 0.0, 0.0, 0.0, 0.0, 0.0, 0.0, 0.0, 0.0)",0,0,0,,-0.2995,0.4015,0.0528,"(0.0, 0.0, 0.0, 0.0, 0.0, 0.0, 0.0, 0.0, 0.0)"
1677800718.7850769,493,1677800718,739835500,imu1_frame,"$VNYMR,+030.333,+032.299,+127.660,-00.2871,+00.4146,-00.0050,+07.940,+00.540,-03.627,+02.590880,+03.429704,+01.402046*6E",0,0,0,,0.7999534364824694,0.3439390453300383,-0.13010429294628484,0.47418699424836264,"(0.0, 0.0, 0.0, 0.0, 0.0, 0.0, 0.0, 0.0, 0.0)",2.59088,3.429704,1.402046,"(0.0, 0.0, 0.0, 0.0, 0.0, 0.0, 0.0, 0.0, 0.0)",7.94,0.54,-3.627,"(0.0, 0.0, 0.0, 0.0, 0.0, 0.0, 0.0, 0.0, 0.0)",0,0,0,,-0.2871,0.4146,-0.005,"(0.0, 0.0, 0.0, 0.0, 0.0, 0.0, 0.0, 0.0, 0.0)"
1677800718.7851043,494,1677800718,765248298,imu1_frame,"$VNYMR,+033.112,+027.554,+132.344,-00.2716,+00.4199,-00.0551,+06.463,+00.763,-03.286,+02.007727,+03.382513,+01.485306*63",0,0,0,,0.8241964270531434,0.34538394056447513,-0.09700671102652136,0.43817791049846916,"(0.0, 0.0, 0.0, 0.0, 0.0, 0.0, 0.0, 0.0, 0.0)",2.007727,3.382513,1.485306,"(0.0, 0.0, 0.0, 0.0, 0.0, 0.0, 0.0, 0.0, 0.0)",6.463,0.763,-3.286,"(0.0, 0.0, 0.0, 0.0, 0.0, 0.0, 0.0, 0.0, 0.0)",0,0,0,,-0.2716,0.4199,-0.0551,"(0.0, 0.0, 0.0, 0.0, 0.0, 0.0, 0.0, 0.0, 0.0)"
1677800718.8327065,495,1677800718,790664911,imu1_frame,"$VNYMR,+035.327,+022.660,+135.271,-00.2439,+00.4337,-00.0817,+06.174,+00.272,-01.857,+01.052965,+03.386722,+01.480609*65",0,0,0,,0.8413287112615552,0.3463627469160115,-0.05991393647985427,0.4106204663326632,"(0.0, 0.0, 0.0, 0.0, 0.0, 0.0, 0.0, 0.0, 0.0)",1.052965,3.386722,1.480609,"(0.0, 0.0, 0.0, 0.0, 0.0, 0.0, 0.0, 0.0, 0.0)",6.174,0.272,-1.857,"(0.0, 0.0, 0.0, 0.0, 0.0, 0.0, 0.0, 0.0, 0.0)",0,0,0,,-0.2439,0.4337,-0.0817,"(0.0, 0.0, 0.0, 0.0, 0.0, 0.0, 0.0, 0.0, 0.0)"
1677800718.8327296,496,1677800718,816040754,imu1_frame,"$VNYMR,+037.245,+017.729,+137.189,-00.2252,+00.4401,-00.1242,+05.129,-01.190,-00.271,+00.827777,+03.314582,+01.453087*6B",0,0,0,,0.8537776923611143,0.34704914848474433,-0.020803963423365726,0.38754062453944543,"(0.0, 0.0, 0.0, 0.0, 0.0, 0.0, 0.0, 0.0, 0.0)",0.827777,3.314582,1.453087,"(0.0, 0.0, 0.0, 0.0, 0.0, 0.0, 0.0, 0.0, 0.0)",5.129,-1.19,-0.271,"(0.0, 0.0, 0.0, 0.0, 0.0, 0.0, 0.0, 0.0, 0.0)",0,0,0,,-0.2252,0.4401,-0.1242,"(0.0, 0.0, 0.0, 0.0, 0.0, 0.0, 0.0, 0.0, 0.0)"
1677800718.8766227,497,1677800718,839599370,imu1_frame,"$VNYMR,+039.044,+012.945,+138.926,-00.2004,+00.4410,-00.1455,+03.505,-01.877,+01.287,+00.908867,+03.254342,+01.295329*60",0,0,0,,0.8637719436011092,0.3482087771987299,0.016989590442444163,0.36381318110525546,"(0.0, 0.0, 0.0, 0.0, 0.0, 0.0, 0.0, 0.0, 0.0)",0.908867,3.254342,1.295329,"(0.0, 0.0, 0.0, 0.0, 0.0, 0.0, 0.0, 0.0, 0.0)",3.505,-1.877,1.287,"(0.0, 0.0, 0.0, 0.0, 0.0, 0.0, 0.0, 0.0, 0.0)",0,0,0,,-0.2004,0.441,-0.1455,"(0.0, 0.0, 0.0, 0.0, 0.0, 0.0, 0.0, 0.0, 0.0)"
1677800718.8766448,498,1677800718,864962577,imu1_frame,"$VNYMR,+040.719,+008.090,+140.596,-00.1722,+00.4452,-00.1775,+03.552,-01.118,+01.333,+00.866962,+03.483922,+01.265567*66",0,0,0,,0.8721717640997028,0.34902182209788796,0.054736220078735486,0.3383845856686957,"(0.0, 0.0, 0.0, 0.0, 0.0, 0.0, 0.0, 0.0, 0.0)",0.866962,3.483922,1.265567,"(0.0, 0.0, 0.0, 0.0, 0.0, 0.0, 0.0, 0.0, 0.0)",3.552,-1.118,1.333,"(0.0, 0.0, 0.0, 0.0, 0.0, 0.0, 0.0, 0.0, 0.0)",0,0,0,,-0.1722,0.4452,-0.1775,"(0.0, 0.0, 0.0, 0.0, 0.0, 0.0, 0.0, 0.0, 0.0)"
1677800718.921591,499,1677800718,890368223,imu1_frame,"$VNYMR,+042.890,+003.048,+141.909,-00.1437,+00.4414,-00.1913,+02.997,+00.177,+01.494,+00.687673,+03.762958,+00.831962*68",0,0,0,,0.8763342085611592,0.35355004087338904,0.09586320711848137,0.31281139529254803,"(0.0, 0.0, 0.0, 0.0, 0.0, 0.0, 0.0, 0.0, 0.0)",0.687673,3.762958,0.831962,"(0.0, 0.0, 0.0, 0.0, 0.0, 0.0, 0.0, 0.0, 0.0)",2.997,0.177,1.494,"(0.0, 0.0, 0.0, 0.0, 0.0, 0.0, 0.0, 0.0, 0.0)",0,0,0,,-0.1437,0.4414,-0.1913,"(0.0, 0.0, 0.0, 0.0, 0.0, 0.0, 0.0, 0.0, 0.0)"
1677800718.921611,500,1677800718,915674209,imu1_frame,"$VNYMR,+045.480,-001.571,+142.780,-00.1114,+00.4389,-00.2144,+01.559,+00.841,+01.627,+00.509029,+03.546424,+00.314313*6E",0,0,0,,0.8756545372123143,0.3622690759130542,0.13532847457638952,0.28926882318254893,"(0.0, 0.0, 0.0, 0.0, 0.0, 0.0, 0.0, 0.0, 0.0)",0.509029,3.546424,0.314313,"(0.0, 0.0, 0.0, 0.0, 0.0, 0.0, 0.0, 0.0, 0.0)",1.559,0.841,1.627,"(0.0, 0.0, 0.0, 0.0, 0.0, 0.0, 0.0, 0.0, 0.0)",0,0,0,,-0.1114,0.4389,-0.2144,"(0.0, 0.0, 0.0, 0.0, 0.0, 0.0, 0.0, 0.0, 0.0)"
1677800718.9646118,501,1677800718,941249847,imu1_frame,"$VNYMR,+048.382,-005.372,+143.066,-00.0877,+00.4420,-00.2345,+00.389,+01.063,+02.098,+00.175371,+03.209749,-00.194792*65",0,0,0,,0.8703449275624973,0.3747111250315948,0.17020449856719674,0.270410259626511,"(0.0, 0.0, 0.0, 0.0, 0.0, 0.0, 0.0, 0.0, 0.0)",0.175371,3.209749,-0.194792,"(0.0, 0.0, 0.0, 0.0, 0.0, 0.0, 0.0, 0.0, 0.0)",0.389,1.063,2.098,"(0.0, 0.0, 0.0, 0.0, 0.0, 0.0, 0.0, 0.0, 0.0)",0,0,0,,-0.0877,0.442,-0.2345,"(0.0, 0.0, 0.0, 0.0, 0.0, 0.0, 0.0, 0.0, 0.0)"
1677800718.9669156,502,1677800718,964619874,imu1_frame,"$VNYMR,+051.533,-008.717,+142.467,-00.0738,+00.4509,-00.2312,+00.044,+00.852,+02.641,-00.344771,+03.180322,-00.402377*64",0,0,0,,0.8608585847868744,0.38838613474543426,0.20424754440609083,0.2576075463574836,"(0.0, 0.0, 0.0, 0.0, 0.0, 0.0, 0.0, 0.0, 0.0)",-0.344771,3.180322,-0.402377,"(0.0, 0.0, 0.0, 0.0, 0.0, 0.0, 0.0, 0.0, 0.0)",0.044,0.852,2.641,"(0.0, 0.0, 0.0, 0.0, 0.0, 0.0, 0.0, 0.0, 0.0)",0,0,0,,-0.0738,0.4509,-0.2312,"(0.0, 0.0, 0.0, 0.0, 0.0, 0.0, 0.0, 0.0, 0.0)"
1677800719.0096173,503,1677800718,990004301,imu1_frame,"$VNYMR,+055.003,-011.874,+140.969,-00.0550,+00.4487,-00.2342,-00.304,-00.125,+02.591,-00.766094,+03.248294,-00.569396*6B",0,0,0,,0.8475132526372404,0.40225999041342403,0.23990879948435057,0.2497037337462434,"(0.0, 0.0, 0.0, 0.0, 0.0, 0.0, 0.0, 0.0, 0.0)",-0.766094,3.248294,-0.569396,"(0.0, 0.0, 0.0, 0.0, 0.0, 0.0, 0.0, 0.0, 0.0)",-0.304,-0.125,2.591,"(0.0, 0.0, 0.0, 0.0, 0.0, 0.0, 0.0, 0.0, 0.0)",0,0,0,,-0.055,0.4487,-0.2342,"(0.0, 0.0, 0.0, 0.0, 0.0, 0.0, 0.0, 0.0, 0.0)"
1677800719.0525756,504,1677800719,15404701,imu1_frame,"$VNYMR,+058.858,-014.993,+138.594,-00.0315,+00.4631,-00.2314,-00.824,-00.852,+02.749,-01.136544,+03.405631,-00.555272*6A",0,0,0,,0.830421676567059,0.4155166348625014,0.2785107409555994,0.24531109312964317,"(0.0, 0.0, 0.0, 0.0, 0.0, 0.0, 0.0, 0.0, 0.0)",-1.136544,3.405631,-0.555272,"(0.0, 0.0, 0.0, 0.0, 0.0, 0.0, 0.0, 0.0, 0.0)",-0.824,-0.852,2.749,"(0.0, 0.0, 0.0, 0.0, 0.0, 0.0, 0.0, 0.0, 0.0)",0,0,0,,-0.0315,0.4631,-0.2314,"(0.0, 0.0, 0.0, 0.0, 0.0, 0.0, 0.0, 0.0, 0.0)"
1677800719.0526016,505,1677800719,40745973,imu1_frame,"$VNYMR,+062.861,-018.291,+135.470,-00.0178,+00.4875,-00.2124,-01.312,-02.090,+02.715,-01.604435,+03.648193,-00.282666*67",0,0,0,,0.8110197104365503,0.42506401391630155,0.3205756785335673,0.2424847370238366,"(0.0, 0.0, 0.0, 0.0, 0.0, 0.0, 0.0, 0.0, 0.0)",-1.604435,3.648193,-0.282666,"(0.0, 0.0, 0.0, 0.0, 0.0, 0.0, 0.0, 0.0, 0.0)",-1.312,-2.09,2.715,"(0.0, 0.0, 0.0, 0.0, 0.0, 0.0, 0.0, 0.0, 0.0)",0,0,0,,-0.0178,0.4875,-0.2124,"(0.0, 0.0, 0.0, 0.0, 0.0, 0.0, 0.0, 0.0, 0.0)"
1677800719.0975277,506,1677800719,66207885,imu1_frame,"$VNYMR,+067.172,-022.020,+131.572,+00.0076,+00.4953,-00.1936,-01.105,-02.608,+02.739,-01.584092,+03.872519,+00.115702*6D",0,0,0,,0.7891108516035333,0.4299791158218871,0.3678116487011601,0.2390326649608983,"(0.0, 0.0, 0.0, 0.0, 0.0, 0.0, 0.0, 0.0, 0.0)",-1.584092,3.872519,0.115702,"(0.0, 0.0, 0.0, 0.0, 0.0, 0.0, 0.0, 0.0, 0.0)",-1.105,-2.608,2.739,"(0.0, 0.0, 0.0, 0.0, 0.0, 0.0, 0.0, 0.0, 0.0)",0,0,0,,0.0076,0.4953,-0.1936,"(0.0, 0.0, 0.0, 0.0, 0.0, 0.0, 0.0, 0.0, 0.0)"
1677800719.097555,507,1677800719,89707612,imu1_frame,"$VNYMR,+071.583,-025.902,+127.935,+00.0406,+00.4982,-00.1650,-01.402,-02.667,+01.347,-01.038527,+03.898603,+00.366961*6B",0,0,0,,0.7678401114522209,0.4323495624094369,0.4134940966647005,0.2291681722073397,"(0.0, 0.0, 0.0, 0.0, 0.0, 0.0, 0.0, 0.0, 0.0)",-1.038527,3.898603,0.366961,"(0.0, 0.0, 0.0, 0.0, 0.0, 0.0, 0.0, 0.0, 0.0)",-1.402,-2.667,1.347,"(0.0, 0.0, 0.0, 0.0, 0.0, 0.0, 0.0, 0.0, 0.0)",0,0,0,,0.0406,0.4982,-0.165,"(0.0, 0.0, 0.0, 0.0, 0.0, 0.0, 0.0, 0.0, 0.0)"
1677800719.1413698,508,1677800719,115034341,imu1_frame,"$VNYMR,+076.381,-029.603,+124.718,+00.0651,+00.5179,-00.1694,-01.922,-03.125,-00.217,-00.464969,+03.950615,+00.268894*6D",0,0,0,,0.7464338817394779,0.43638767245261934,0.45519368080399836,0.21260520332021093,"(0.0, 0.0, 0.0, 0.0, 0.0, 0.0, 0.0, 0.0, 0.0)",-0.464969,3.950615,0.268894,"(0.0, 0.0, 0.0, 0.0, 0.0, 0.0, 0.0, 0.0, 0.0)",-1.922,-3.125,-0.217,"(0.0, 0.0, 0.0, 0.0, 0.0, 0.0, 0.0, 0.0, 0.0)",0,0,0,,0.0651,0.5179,-0.1694,"(0.0, 0.0, 0.0, 0.0, 0.0, 0.0, 0.0, 0.0, 0.0)"
1677800719.1430304,509,1677800719,140599966,imu1_frame,"$VNYMR,+081.679,-033.061,+121.540,+00.0882,+00.5190,-00.1448,-02.701,-02.449,-01.068,-00.188471,+03.916176,+00.392993*68",0,0,0,,0.7237812583109532,0.4419734718962065,0.49397946629555917,0.19179266705528908,"(0.0, 0.0, 0.0, 0.0, 0.0, 0.0, 0.0, 0.0, 0.0)",-0.188471,3.916176,0.392993,"(0.0, 0.0, 0.0, 0.0, 0.0, 0.0, 0.0, 0.0, 0.0)",-2.701,-2.449,-1.068,"(0.0, 0.0, 0.0, 0.0, 0.0, 0.0, 0.0, 0.0, 0.0)",0,0,0,,0.0882,0.519,-0.1448,"(0.0, 0.0, 0.0, 0.0, 0.0, 0.0, 0.0, 0.0, 0.0)"
1677800719.184551,510,1677800719,165950059,imu1_frame,"$VNYMR,+086.964,-036.603,+118.511,+00.1198,+00.5109,-00.1245,-02.053,-01.974,-02.560,+00.081864,+03.842609,+00.768030*6B",0,0,0,,0.702533033116492,0.4450205663803296,0.529808974421666,0.1664526464221429,"(0.0, 0.0, 0.0, 0.0, 0.0, 0.0, 0.0, 0.0, 0.0)",0.081864,3.842609,0.76803,"(0.0, 0.0, 0.0, 0.0, 0.0, 0.0, 0.0, 0.0, 0.0)",-2.053,-1.974,-2.56,"(0.0, 0.0, 0.0, 0.0, 0.0, 0.0, 0.0, 0.0, 0.0)",0,0,0,,0.1198,0.5109,-0.1245,"(0.0, 0.0, 0.0, 0.0, 0.0, 0.0, 0.0, 0.0, 0.0)"
1677800719.2294288,511,1677800719,191272974,imu1_frame,"$VNYMR,+092.615,-040.085,+115.121,+00.1452,+00.5075,-00.1214,-01.582,-02.473,-04.301,+00.087509,+03.869053,+00.749866*65",0,0,0,,0.6806133966135584,0.446282122350227,0.5641681469668349,0.1389675270296609,"(0.0, 0.0, 0.0, 0.0, 0.0, 0.0, 0.0, 0.0, 0.0)",0.087509,3.869053,0.749866,"(0.0, 0.0, 0.0, 0.0, 0.0, 0.0, 0.0, 0.0, 0.0)",-1.582,-2.473,-4.301,"(0.0, 0.0, 0.0, 0.0, 0.0, 0.0, 0.0, 0.0, 0.0)",0,0,0,,0.1452,0.5075,-0.1214,"(0.0, 0.0, 0.0, 0.0, 0.0, 0.0, 0.0, 0.0, 0.0)"
1677800719.229452,512,1677800719,214756250,imu1_frame,"$VNYMR,+098.884,-043.056,+110.884,+00.1682,+00.5141,-00.0933,-01.664,-03.205,-04.563,-00.135668,+03.751228,+00.605305*69",0,0,0,,0.6562748069620282,0.44669892751334095,0.5973957549567815,0.11349783198370134,"(0.0, 0.0, 0.0, 0.0, 0.0, 0.0, 0.0, 0.0, 0.0)",-0.135668,3.751228,0.605305,"(0.0, 0.0, 0.0, 0.0, 0.0, 0.0, 0.0, 0.0, 0.0)",-1.664,-3.205,-4.563,"(0.0, 0.0, 0.0, 0.0, 0.0, 0.0, 0.0, 0.0, 0.0)",0,0,0,,0.1682,0.5141,-0.0933,"(0.0, 0.0, 0.0, 0.0, 0.0, 0.0, 0.0, 0.0, 0.0)"
1677800719.2726316,513,1677800719,240172147,imu1_frame,"$VNYMR,+105.357,-045.615,+106.002,+00.1923,+00.5196,-00.0711,-02.363,-04.463,-05.189,-00.315655,+03.548321,+00.741705*67",0,0,0,,0.6318644113319654,0.44402702098155794,0.6288577168691569,0.09014068040825565,"(0.0, 0.0, 0.0, 0.0, 0.0, 0.0, 0.0, 0.0, 0.0)",-0.315655,3.548321,0.741705,"(0.0, 0.0, 0.0, 0.0, 0.0, 0.0, 0.0, 0.0, 0.0)",-2.363,-4.463,-5.189,"(0.0, 0.0, 0.0, 0.0, 0.0, 0.0, 0.0, 0.0, 0.0)",0,0,0,,0.1923,0.5196,-0.0711,"(0.0, 0.0, 0.0, 0.0, 0.0, 0.0, 0.0, 0.0, 0.0)"
1677800719.2726598,514,1677800719,265599966,imu1_frame,"$VNYMR,+111.842,-047.922,+100.867,+00.2063,+00.4977,-00.0271,-01.540,-05.068,-05.719,-00.130114,+03.205215,+00.815134*62",0,0,0,,0.6089890234496403,0.4385239123497664,0.657540363999668,0.06685669245851139,"(0.0, 0.0, 0.0, 0.0, 0.0, 0.0, 0.0, 0.0, 0.0)",-0.130114,3.205215,0.815134,"(0.0, 0.0, 0.0, 0.0, 0.0, 0.0, 0.0, 0.0, 0.0)",-1.54,-5.068,-5.719,"(0.0, 0.0, 0.0, 0.0, 0.0, 0.0, 0.0, 0.0, 0.0)",0,0,0,,0.2063,0.4977,-0.0271,"(0.0, 0.0, 0.0, 0.0, 0.0, 0.0, 0.0, 0.0, 0.0)"
1677800719.3169136,515,1677800719,290928125,imu1_frame,"$VNYMR,+118.297,-049.326,+095.998,+00.2179,+00.4988,-00.0274,-02.883,-06.492,-06.854,+00.088999,+03.130333,+00.300747*68",0,0,0,,0.5860363482859519,0.43659308692827403,0.681077065128045,0.04562791131178201,"(0.0, 0.0, 0.0, 0.0, 0.0, 0.0, 0.0, 0.0, 0.0)",0.088999,3.130333,0.300747,"(0.0, 0.0, 0.0, 0.0, 0.0, 0.0, 0.0, 0.0, 0.0)",-2.883,-6.492,-6.854,"(0.0, 0.0, 0.0, 0.0, 0.0, 0.0, 0.0, 0.0, 0.0)",0,0,0,,0.2179,0.4988,-0.0274,"(0.0, 0.0, 0.0, 0.0, 0.0, 0.0, 0.0, 0.0, 0.0)"
1677800719.3186371,516,1677800719,316310167,imu1_frame,"$VNYMR,+124.768,-049.708,+091.609,+00.2250,+00.4944,-00.0065,-01.927,-05.616,-04.987,+00.579401,+02.732280,-00.141356*61",0,0,0,,0.5611832020407999,0.4406272945931563,0.7001676449414631,0.02619675521655268,"(0.0, 0.0, 0.0, 0.0, 0.0, 0.0, 0.0, 0.0, 0.0)",0.579401,2.73228,-0.141356,"(0.0, 0.0, 0.0, 0.0, 0.0, 0.0, 0.0, 0.0, 0.0)",-1.927,-5.616,-4.987,"(0.0, 0.0, 0.0, 0.0, 0.0, 0.0, 0.0, 0.0, 0.0)",0,0,0,,0.225,0.4944,-0.0065,"(0.0, 0.0, 0.0, 0.0, 0.0, 0.0, 0.0, 0.0, 0.0)"
1677800719.3622746,517,1677800719,339962720,imu1_frame,"$VNYMR,+130.577,-048.819,+088.156,+00.2164,+00.5034,+00.0214,-00.973,-05.778,-06.879,+00.714304,+02.646117,-00.941414*6C",0,0,0,,0.5345095715940413,0.45133776063617187,0.7144520452704018,0.012329586660525416,"(0.0, 0.0, 0.0, 0.0, 0.0, 0.0, 0.0, 0.0, 0.0)",0.714304,2.646117,-0.941414,"(0.0, 0.0, 0.0, 0.0, 0.0, 0.0, 0.0, 0.0, 0.0)",-0.973,-5.778,-6.879,"(0.0, 0.0, 0.0, 0.0, 0.0, 0.0, 0.0, 0.0, 0.0)",0,0,0,,0.2164,0.5034,0.0214,"(0.0, 0.0, 0.0, 0.0, 0.0, 0.0, 0.0, 0.0, 0.0)"
1677800719.4085534,518,1677800719,365229845,imu1_frame,"$VNYMR,+135.872,-046.624,+085.477,+00.2018,+00.5078,+00.0131,-02.150,-06.237,-08.285,+00.871843,+02.467185,-01.690185*62",0,0,0,,0.5034861703252936,0.4684250917266074,0.7259887221852607,0.0044704576836149534,"(0.0, 0.0, 0.0, 0.0, 0.0, 0.0, 0.0, 0.0, 0.0)",0.871843,2.467185,-1.690185,"(0.0, 0.0, 0.0, 0.0, 0.0, 0.0, 0.0, 0.0, 0.0)",-2.15,-6.237,-8.285,"(0.0, 0.0, 0.0, 0.0, 0.0, 0.0, 0.0, 0.0, 0.0)",0,0,0,,0.2018,0.5078,0.0131,"(0.0, 0.0, 0.0, 0.0, 0.0, 0.0, 0.0, 0.0, 0.0)"
1677800719.4085808,519,1677800719,390731573,imu1_frame,"$VNYMR,+140.107,-043.334,+083.202,+00.1732,+00.5149,+00.0278,-02.849,-05.363,-06.792,+00.127517,+02.278265,-02.352600*67",0,0,0,,0.4700239374643973,0.48582776142990663,0.7368885108511047,0.006648835244722928,"(0.0, 0.0, 0.0, 0.0, 0.0, 0.0, 0.0, 0.0, 0.0)",0.127517,2.278265,-2.3526,"(0.0, 0.0, 0.0, 0.0, 0.0, 0.0, 0.0, 0.0, 0.0)",-2.849,-5.363,-6.792,"(0.0, 0.0, 0.0, 0.0, 0.0, 0.0, 0.0, 0.0, 0.0)",0,0,0,,0.1732,0.5149,0.0278,"(0.0, 0.0, 0.0, 0.0, 0.0, 0.0, 0.0, 0.0, 0.0)"
1677800719.4512303,520,1677800719,416074991,imu1_frame,"$VNYMR,+143.700,-039.291,+080.533,+00.1375,+00.5206,+00.0370,-00.710,-04.785,-07.042,-00.181986,+02.101769,-02.556044*6F",0,0,0,,0.4333917158094529,0.4985208186822718,0.7505644118748178,0.017368869712929086,"(0.0, 0.0, 0.0, 0.0, 0.0, 0.0, 0.0, 0.0, 0.0)",-0.181986,2.101769,-2.556044,"(0.0, 0.0, 0.0, 0.0, 0.0, 0.0, 0.0, 0.0, 0.0)",-0.71,-4.785,-7.042,"(0.0, 0.0, 0.0, 0.0, 0.0, 0.0, 0.0, 0.0, 0.0)",0,0,0,,0.1375,0.5206,0.037,"(0.0, 0.0, 0.0, 0.0, 0.0, 0.0, 0.0, 0.0, 0.0)"
1677800719.4512563,521,1677800719,439513683,imu1_frame,"$VNYMR,+145.524,-035.061,+079.590,+00.1018,+00.5253,+00.0534,-00.445,-07.608,-09.645,+00.348730,+01.133315,-02.906325*64",0,0,0,,0.40190088081925934,0.5143192313222723,0.7568773384018317,0.03298643512915145,"(0.0, 0.0, 0.0, 0.0, 0.0, 0.0, 0.0, 0.0, 0.0)",0.34873,1.133315,-2.906325,"(0.0, 0.0, 0.0, 0.0, 0.0, 0.0, 0.0, 0.0, 0.0)",-0.445,-7.608,-9.645,"(0.0, 0.0, 0.0, 0.0, 0.0, 0.0, 0.0, 0.0, 0.0)",0,0,0,,0.1018,0.5253,0.0534,"(0.0, 0.0, 0.0, 0.0, 0.0, 0.0, 0.0, 0.0, 0.0)"
1677800719.4925444,522,1677800719,465000867,imu1_frame,"$VNYMR,+145.902,-030.410,+080.013,+00.0558,+00.5222,+00.0511,+01.035,-08.491,-08.355,+00.416346,+00.653997,-03.322753*6F",0,0,0,,0.37395140842640556,0.5342072675360167,0.7561092118833493,0.055513954576761115,"(0.0, 0.0, 0.0, 0.0, 0.0, 0.0, 0.0, 0.0, 0.0)",0.416346,0.653997,-3.322753,"(0.0, 0.0, 0.0, 0.0, 0.0, 0.0, 0.0, 0.0, 0.0)",1.035,-8.491,-8.355,"(0.0, 0.0, 0.0, 0.0, 0.0, 0.0, 0.0, 0.0, 0.0)",0,0,0,,0.0558,0.5222,0.0511,"(0.0, 0.0, 0.0, 0.0, 0.0, 0.0, 0.0, 0.0, 0.0)"
1677800719.492559,523,1677800719,490283250,imu1_frame,"$VNYMR,+146.137,-025.340,+080.085,+00.0022,+00.5224,+00.0483,+01.259,-09.426,-07.496,+00.009858,+00.907924,-03.370253*67",0,0,0,,0.3434383908613904,0.5515796840989885,0.7556443850561338,0.08253173392662988,"(0.0, 0.0, 0.0, 0.0, 0.0, 0.0, 0.0, 0.0, 0.0)",0.009858,0.907924,-3.370253,"(0.0, 0.0, 0.0, 0.0, 0.0, 0.0, 0.0, 0.0, 0.0)",1.259,-9.426,-7.496,"(0.0, 0.0, 0.0, 0.0, 0.0, 0.0, 0.0, 0.0, 0.0)",0,0,0,,0.0022,0.5224,0.0483,"(0.0, 0.0, 0.0, 0.0, 0.0, 0.0, 0.0, 0.0, 0.0)"
1677800719.5371804,524,1677800719,515712261,imu1_frame,"$VNYMR,+147.050,-020.927,+079.755,-00.0355,+00.5313,+00.0573,+02.040,-08.912,-07.982,-00.017804,+01.203924,-02.650928*6F",0,0,0,,0.31245194585135483,0.5650761226929435,0.7566935675807703,0.10236015766839013,"(0.0, 0.0, 0.0, 0.0, 0.0, 0.0, 0.0, 0.0, 0.0)",-0.017804,1.203924,-2.650928,"(0.0, 0.0, 0.0, 0.0, 0.0, 0.0, 0.0, 0.0, 0.0)",2.04,-8.912,-7.982,"(0.0, 0.0, 0.0, 0.0, 0.0, 0.0, 0.0, 0.0, 0.0)",0,0,0,,-0.0355,0.5313,0.0573,"(0.0, 0.0, 0.0, 0.0, 0.0, 0.0, 0.0, 0.0, 0.0)"
1677800719.5437489,525,1677800719,541250228,imu1_frame,"$VNYMR,+148.559,-017.174,+079.178,-00.0690,+00.5130,+00.0656,+04.123,-08.482,-08.646,+00.058879,+01.528835,-02.355038*6A",0,0,0,,0.28149150674381146,0.5753860795967769,0.7592754331535418,0.11486604218328354,"(0.0, 0.0, 0.0, 0.0, 0.0, 0.0, 0.0, 0.0, 0.0)",0.058879,1.528835,-2.355038,"(0.0, 0.0, 0.0, 0.0, 0.0, 0.0, 0.0, 0.0, 0.0)",4.123,-8.482,-8.646,"(0.0, 0.0, 0.0, 0.0, 0.0, 0.0, 0.0, 0.0, 0.0)",0,0,0,,-0.069,0.513,0.0656,"(0.0, 0.0, 0.0, 0.0, 0.0, 0.0, 0.0, 0.0, 0.0)"
1677800719.5890188,526,1677800719,564547061,imu1_frame,"$VNYMR,+149.179,-012.894,+079.872,-00.1096,+00.4947,+00.0485,+04.347,-09.903,-09.263,+01.087499,+00.387971,-03.296476*6C",0,0,0,,0.25250328463605615,0.5920601478230185,0.7536734760185138,0.1329780589193534,"(0.0, 0.0, 0.0, 0.0, 0.0, 0.0, 0.0, 0.0, 0.0)",1.087499,0.387971,-3.296476,"(0.0, 0.0, 0.0, 0.0, 0.0, 0.0, 0.0, 0.0, 0.0)",4.347,-9.903,-9.263,"(0.0, 0.0, 0.0, 0.0, 0.0, 0.0, 0.0, 0.0, 0.0)",0,0,0,,-0.1096,0.4947,0.0485,"(0.0, 0.0, 0.0, 0.0, 0.0, 0.0, 0.0, 0.0, 0.0)"
1677800719.63296,527,1677800719,590009450,imu1_frame,"$VNYMR,+147.653,-007.407,+082.143,-00.1513,+00.4872,+00.0348,+04.002,-11.733,-08.745,+01.380683,-00.798141,-04.221465*6C",0,0,0,,0.22939221605065432,0.6161160595524855,0.7343621464250265,0.1687970683244111,"(0.0, 0.0, 0.0, 0.0, 0.0, 0.0, 0.0, 0.0, 0.0)",1.380683,-0.798141,-4.221465,"(0.0, 0.0, 0.0, 0.0, 0.0, 0.0, 0.0, 0.0, 0.0)",4.002,-11.733,-8.745,"(0.0, 0.0, 0.0, 0.0, 0.0, 0.0, 0.0, 0.0, 0.0)",0,0,0,,-0.1513,0.4872,0.0348,"(0.0, 0.0, 0.0, 0.0, 0.0, 0.0, 0.0, 0.0, 0.0)"
1677800719.6329794,528,1677800719,615368366,imu1_frame,"$VNYMR,+146.015,-002.067,+083.509,-00.2004,+00.4534,+00.0384,+06.357,-12.175,-06.968,+00.651443,-00.424758,-03.534076*6D",0,0,0,,0.20745532252581694,0.6328313329214696,0.7168310213216721,0.2064947459367284,"(0.0, 0.0, 0.0, 0.0, 0.0, 0.0, 0.0, 0.0, 0.0)",0.651443,-0.424758,-3.534076,"(0.0, 0.0, 0.0, 0.0, 0.0, 0.0, 0.0, 0.0, 0.0)",6.357,-12.175,-6.968,"(0.0, 0.0, 0.0, 0.0, 0.0, 0.0, 0.0, 0.0, 0.0)",0,0,0,,-0.2004,0.4534,0.0384,"(0.0, 0.0, 0.0, 0.0, 0.0, 0.0, 0.0, 0.0, 0.0)"
1677800719.681875,529,1677800719,640792131,imu1_frame,"$VNYMR,+145.157,+002.560,+084.594,-00.2359,+00.4264,+00.0313,+07.208,-12.146,-07.514,+01.049191,-00.266370,-03.205206*6F",0,0,0,,0.1856723061128279,0.6468898848440968,0.7010593887850285,0.23574351534135057,"(0.0, 0.0, 0.0, 0.0, 0.0, 0.0, 0.0, 0.0, 0.0)",1.049191,-0.26637,-3.205206,"(0.0, 0.0, 0.0, 0.0, 0.0, 0.0, 0.0, 0.0, 0.0)",7.208,-12.146,-7.514,"(0.0, 0.0, 0.0, 0.0, 0.0, 0.0, 0.0, 0.0, 0.0)",0,0,0,,-0.2359,0.4264,0.0313,"(0.0, 0.0, 0.0, 0.0, 0.0, 0.0, 0.0, 0.0, 0.0)"
1677800719.6819024,530,1677800719,666126012,imu1_frame,"$VNYMR,+143.806,+007.753,+086.780,-00.2660,+00.4156,+00.0090,+07.439,-12.752,-07.920,+01.977616,-01.015611,-04.078215*6B",0,0,0,,0.16620143033590432,0.6667449307586152,0.6747397379481138,0.26935955133557066,"(0.0, 0.0, 0.0, 0.0, 0.0, 0.0, 0.0, 0.0, 0.0)",1.977616,-1.015611,-4.078215,"(0.0, 0.0, 0.0, 0.0, 0.0, 0.0, 0.0, 0.0, 0.0)",7.439,-12.752,-7.92,"(0.0, 0.0, 0.0, 0.0, 0.0, 0.0, 0.0, 0.0, 0.0)",0,0,0,,-0.266,0.4156,0.009,"(0.0, 0.0, 0.0, 0.0, 0.0, 0.0, 0.0, 0.0, 0.0)"
1677800719.7248223,531,1677800719,689705133,imu1_frame,"$VNYMR,+141.453,+013.736,+089.298,-00.3053,+00.3767,+00.0062,+23.377,-16.575,+03.630,+01.658087,-04.110977,-02.693678*65",0,0,0,,0.14999571031704254,0.6866953735069384,0.6389946327658479,0.3124685747192688,"(0.0, 0.0, 0.0, 0.0, 0.0, 0.0, 0.0, 0.0, 0.0)",1.658087,-4.110977,-2.693678,"(0.0, 0.0, 0.0, 0.0, 0.0, 0.0, 0.0, 0.0, 0.0)",23.377,-16.575,3.63,"(0.0, 0.0, 0.0, 0.0, 0.0, 0.0, 0.0, 0.0, 0.0)",0,0,0,,-0.3053,0.3767,0.0062,"(0.0, 0.0, 0.0, 0.0, 0.0, 0.0, 0.0, 0.0, 0.0)"
1677800719.7248492,532,1677800719,714979171,imu1_frame,"$VNYMR,+136.902,+020.630,+092.494,-00.3431,+00.3201,+00.0063,+05.616,-15.818,-00.799,+02.740983,-03.059300,-04.630145*6A",0,0,0,,0.14584702224911533,0.7064636164712268,0.5853124775671347,0.37019874163438693,"(0.0, 0.0, 0.0, 0.0, 0.0, 0.0, 0.0, 0.0, 0.0)",2.740983,-3.0593,-4.630145,"(0.0, 0.0, 0.0, 0.0, 0.0, 0.0, 0.0, 0.0, 0.0)",5.616,-15.818,-0.799,"(0.0, 0.0, 0.0, 0.0, 0.0, 0.0, 0.0, 0.0, 0.0)",0,0,0,,-0.3431,0.3201,0.0063,"(0.0, 0.0, 0.0, 0.0, 0.0, 0.0, 0.0, 0.0, 0.0)"
1677800719.768532,533,1677800719,740459918,imu1_frame,"$VNYMR,+132.673,+026.432,+094.065,-00.3630,+00.2864,+00.0063,+10.705,-20.295,-04.652,+01.561595,-02.875937,-04.505718*61",0,0,0,,0.14319265387530303,0.7150067989338917,0.5405957172974077,0.4195442906227641,"(0.0, 0.0, 0.0, 0.0, 0.0, 0.0, 0.0, 0.0, 0.0)",1.561595,-2.875937,-4.505718,"(0.0, 0.0, 0.0, 0.0, 0.0, 0.0, 0.0, 0.0, 0.0)",10.705,-20.295,-4.652,"(0.0, 0.0, 0.0, 0.0, 0.0, 0.0, 0.0, 0.0, 0.0)",0,0,0,,-0.363,0.2864,0.0063,"(0.0, 0.0, 0.0, 0.0, 0.0, 0.0, 0.0, 0.0, 0.0)"
1677800719.7685537,534,1677800719,765911340,imu1_frame,"$VNYMR,+128.508,+033.703,+093.807,-00.3960,+00.2459,+00.0315,+09.926,-12.964,-03.607,+01.566275,-02.869283,-04.708458*6A",0,0,0,,0.12516669068568767,0.7155078382620106,0.49702791708387395,0.474705258626533,"(0.0, 0.0, 0.0, 0.0, 0.0, 0.0, 0.0, 0.0, 0.0)",1.566275,-2.869283,-4.708458,"(0.0, 0.0, 0.0, 0.0, 0.0, 0.0, 0.0, 0.0, 0.0)",9.926,-12.964,-3.607,"(0.0, 0.0, 0.0, 0.0, 0.0, 0.0, 0.0, 0.0, 0.0)",0,0,0,,-0.396,0.2459,0.0315,"(0.0, 0.0, 0.0, 0.0, 0.0, 0.0, 0.0, 0.0, 0.0)"
1677800719.8165703,535,1677800719,791202783,imu1_frame,"$VNYMR,+122.682,+040.102,+093.769,-00.4119,+00.2034,+00.0391,+10.362,-14.217,-03.265,+02.848227,-03.851763,-04.106184*64",0,0,0,,0.12324970597173973,0.7141074523042161,0.4433554405337268,0.5275376857539245,"(0.0, 0.0, 0.0, 0.0, 0.0, 0.0, 0.0, 0.0, 0.0)",2.848227,-3.851763,-4.106184,"(0.0, 0.0, 0.0, 0.0, 0.0, 0.0, 0.0, 0.0, 0.0)",10.362,-14.217,-3.265,"(0.0, 0.0, 0.0, 0.0, 0.0, 0.0, 0.0, 0.0, 0.0)",0,0,0,,-0.4119,0.2034,0.0391,"(0.0, 0.0, 0.0, 0.0, 0.0, 0.0, 0.0, 0.0, 0.0)"
1677800719.817481,536,1677800719,814793825,imu1_frame,"$VNYMR,+114.963,+045.546,+093.255,-00.4274,+00.1568,+00.0758,+12.005,-13.451,-04.118,+03.521803,-04.290226,-03.089968*61",0,0,0,,0.1361544484888374,0.7080568383754899,0.38267220625939913,0.5776499479295133,"(0.0, 0.0, 0.0, 0.0, 0.0, 0.0, 0.0, 0.0, 0.0)",3.521803,-4.290226,-3.089968,"(0.0, 0.0, 0.0, 0.0, 0.0, 0.0, 0.0, 0.0, 0.0)",12.005,-13.451,-4.118,"(0.0, 0.0, 0.0, 0.0, 0.0, 0.0, 0.0, 0.0, 0.0)",0,0,0,,-0.4274,0.1568,0.0758,"(0.0, 0.0, 0.0, 0.0, 0.0, 0.0, 0.0, 0.0, 0.0)"
1677800719.8616045,537,1677800719,840093374,imu1_frame,"$VNYMR,+105.661,+049.226,+091.874,-00.4286,+00.1448,+00.0902,+14.018,-13.424,-04.364,+04.060109,-04.689206,-02.014621*69",0,0,0,,0.16389517108000512,0.6955693476432719,0.3230027147683374,0.620476350691993,"(0.0, 0.0, 0.0, 0.0, 0.0, 0.0, 0.0, 0.0, 0.0)",4.060109,-4.689206,-2.014621,"(0.0, 0.0, 0.0, 0.0, 0.0, 0.0, 0.0, 0.0, 0.0)",14.018,-13.424,-4.364,"(0.0, 0.0, 0.0, 0.0, 0.0, 0.0, 0.0, 0.0, 0.0)",0,0,0,,-0.4286,0.1448,0.0902,"(0.0, 0.0, 0.0, 0.0, 0.0, 0.0, 0.0, 0.0, 0.0)"
1677800719.9125159,538,1677800719,865581750,imu1_frame,"$VNYMR,+094.752,+052.544,+089.551,-00.4264,+00.1268,+00.1272,+14.965,-11.907,-04.909,+04.346932,-04.883822,-02.534842*61",0,0,0,,0.19649088404523044,0.6775016285534928,0.2572588375820807,0.660454969154147,"(0.0, 0.0, 0.0, 0.0, 0.0, 0.0, 0.0, 0.0, 0.0)",4.346932,-4.883822,-2.534842,"(0.0, 0.0, 0.0, 0.0, 0.0, 0.0, 0.0, 0.0, 0.0)",14.965,-11.907,-4.909,"(0.0, 0.0, 0.0, 0.0, 0.0, 0.0, 0.0, 0.0, 0.0)",0,0,0,,-0.4264,0.1268,0.1272,"(0.0, 0.0, 0.0, 0.0, 0.0, 0.0, 0.0, 0.0, 0.0)"
1677800719.9125428,539,1677800719,890937566,imu1_frame,"$VNYMR,+081.612,+056.408,+085.262,-00.4259,+00.1171,+00.1778,+14.747,-08.248,-03.205,+04.609230,-05.418459,-03.009432*63",0,0,0,,0.22454853761730187,0.6532440806604985,0.18143160550945853,0.6999519253907451,"(0.0, 0.0, 0.0, 0.0, 0.0, 0.0, 0.0, 0.0, 0.0)",4.60923,-5.418459,-3.009432,"(0.0, 0.0, 0.0, 0.0, 0.0, 0.0, 0.0, 0.0, 0.0)",14.747,-8.248,-3.205,"(0.0, 0.0, 0.0, 0.0, 0.0, 0.0, 0.0, 0.0, 0.0)",0,0,0,,-0.4259,0.1171,0.1778,"(0.0, 0.0, 0.0, 0.0, 0.0, 0.0, 0.0, 0.0, 0.0)"
1677800719.9535723,540,1677800719,916281461,imu1_frame,"$VNYMR,+065.821,+059.387,+078.820,-00.4157,+00.1100,+00.2015,+16.220,-08.307,-01.181,+04.982205,-05.450143,-02.753569*6D",0,0,0,,0.2550490897643303,0.6209521083043948,0.10064631771008309,0.7343287817688442,"(0.0, 0.0, 0.0, 0.0, 0.0, 0.0, 0.0, 0.0, 0.0)",4.982205,-5.450143,-2.753569,"(0.0, 0.0, 0.0, 0.0, 0.0, 0.0, 0.0, 0.0, 0.0)",16.22,-8.307,-1.181,"(0.0, 0.0, 0.0, 0.0, 0.0, 0.0, 0.0, 0.0, 0.0)",0,0,0,,-0.4157,0.11,0.2015,"(0.0, 0.0, 0.0, 0.0, 0.0, 0.0, 0.0, 0.0, 0.0)"
1677800719.9535983,541,1677800719,939845800,imu1_frame,"$VNYMR,+050.046,+060.868,+071.955,-00.4013,+00.0991,+00.2400,+15.813,-09.112,+00.443,+04.457770,-04.635482,-02.033464*6D",0,0,0,,0.28558995609727417,0.5856946676551567,0.02548555446484535,0.7581230901181498,"(0.0, 0.0, 0.0, 0.0, 0.0, 0.0, 0.0, 0.0, 0.0)",4.45777,-4.635482,-2.033464,"(0.0, 0.0, 0.0, 0.0, 0.0, 0.0, 0.0, 0.0, 0.0)",15.813,-9.112,0.443,"(0.0, 0.0, 0.0, 0.0, 0.0, 0.0, 0.0, 0.0, 0.0)",0,0,0,,-0.4013,0.0991,0.24,"(0.0, 0.0, 0.0, 0.0, 0.0, 0.0, 0.0, 0.0, 0.0)"
1677800720.0045033,542,1677800719,965285778,imu1_frame,"$VNYMR,+038.023,+060.634,+067.015,-00.3817,+00.1133,+00.2723,+16.450,-07.816,+01.600,+03.523754,-03.340010,-00.695840*64",0,0,0,,0.313447097332622,0.5531774930917925,-0.028987692365034318,0.7713010385068748,"(0.0, 0.0, 0.0, 0.0, 0.0, 0.0, 0.0, 0.0, 0.0)",3.523754,-3.34001,-0.69584,"(0.0, 0.0, 0.0, 0.0, 0.0, 0.0, 0.0, 0.0, 0.0)",16.45,-7.816,1.6,"(0.0, 0.0, 0.0, 0.0, 0.0, 0.0, 0.0, 0.0, 0.0)",0,0,0,,-0.3817,0.1133,0.2723,"(0.0, 0.0, 0.0, 0.0, 0.0, 0.0, 0.0, 0.0, 0.0)"
1677800720.0045252,543,1677800719,990563154,imu1_frame,"$VNYMR,+031.348,+059.178,+065.597,-00.3724,+00.1222,+00.2994,+16.790,-07.194,+00.125,+02.749486,-02.044367,+00.271426*6A",0,0,0,,0.34139523372856606,0.5268826949523658,-0.06004613112856097,0.7760401937294495,"(0.0, 0.0, 0.0, 0.0, 0.0, 0.0, 0.0, 0.0, 0.0)",2.749486,-2.044367,0.271426,"(0.0, 0.0, 0.0, 0.0, 0.0, 0.0, 0.0, 0.0, 0.0)",16.79,-7.194,0.125,"(0.0, 0.0, 0.0, 0.0, 0.0, 0.0, 0.0, 0.0, 0.0)",0,0,0,,-0.3724,0.1222,0.2994,"(0.0, 0.0, 0.0, 0.0, 0.0, 0.0, 0.0, 0.0, 0.0)"
1677800720.0453684,544,1677800720,16474485,imu1_frame,"$VNYMR,+027.217,+057.940,+066.156,-00.3586,+00.1454,+00.3063,+15.880,-05.178,-00.548,+03.130745,-01.819974,-00.101963*68",0,0,0,,0.36859228163800967,0.5068046321176752,-0.0844442463998768,0.7746986278746792,"(0.0, 0.0, 0.0, 0.0, 0.0, 0.0, 0.0, 0.0, 0.0)",3.130745,-1.819974,-0.101963,"(0.0, 0.0, 0.0, 0.0, 0.0, 0.0, 0.0, 0.0, 0.0)",15.88,-5.178,-0.548,"(0.0, 0.0, 0.0, 0.0, 0.0, 0.0, 0.0, 0.0, 0.0)",0,0,0,,-0.3586,0.1454,0.3063,"(0.0, 0.0, 0.0, 0.0, 0.0, 0.0, 0.0, 0.0, 0.0)"
1677800720.0453951,545,1677800720,39504289,imu1_frame,"$VNYMR,+021.139,+057.705,+066.135,-00.3501,+00.1620,+00.3056,+16.425,-03.711,-01.442,+03.750763,-02.327356,-01.108144*68",0,0,0,,0.39560929566708225,0.4851940459112948,-0.1241922259307314,0.7698417460831762,"(0.0, 0.0, 0.0, 0.0, 0.0, 0.0, 0.0, 0.0, 0.0)",3.750763,-2.327356,-1.108144,"(0.0, 0.0, 0.0, 0.0, 0.0, 0.0, 0.0, 0.0, 0.0)",16.425,-3.711,-1.442,"(0.0, 0.0, 0.0, 0.0, 0.0, 0.0, 0.0, 0.0, 0.0)",0,0,0,,-0.3501,0.162,0.3056,"(0.0, 0.0, 0.0, 0.0, 0.0, 0.0, 0.0, 0.0, 0.0)"
1677800720.088597,546,1677800720,64886569,imu1_frame,"$VNYMR,+013.966,+057.679,+065.072,-00.3386,+00.1765,+00.3264,+17.308,-05.384,-01.919,+03.172320,-02.291543,-01.064134*69",0,0,0,,0.4181912718524343,0.46091390205727295,-0.1677195831690328,0.7645551493897532,"(0.0, 0.0, 0.0, 0.0, 0.0, 0.0, 0.0, 0.0, 0.0)",3.17232,-2.291543,-1.064134,"(0.0, 0.0, 0.0, 0.0, 0.0, 0.0, 0.0, 0.0, 0.0)",17.308,-5.384,-1.919,"(0.0, 0.0, 0.0, 0.0, 0.0, 0.0, 0.0, 0.0, 0.0)",0,0,0,,-0.3386,0.1765,0.3264,"(0.0, 0.0, 0.0, 0.0, 0.0, 0.0, 0.0, 0.0, 0.0)"
1677800720.0925832,547,1677800720,90250730,imu1_frame,"$VNYMR,+009.285,+057.123,+064.671,-00.3270,+00.1820,+00.3332,+15.884,-08.180,-03.728,+02.048560,-01.280461,-00.105580*61",0,0,0,,0.43554656926229274,0.44066097284810457,-0.19482134530306702,0.7603694736289138,"(0.0, 0.0, 0.0, 0.0, 0.0, 0.0, 0.0, 0.0, 0.0)",2.04856,-1.280461,-0.10558,"(0.0, 0.0, 0.0, 0.0, 0.0, 0.0, 0.0, 0.0, 0.0)",15.884,-8.18,-3.728,"(0.0, 0.0, 0.0, 0.0, 0.0, 0.0, 0.0, 0.0, 0.0)",0,0,0,,-0.327,0.182,0.3332,"(0.0, 0.0, 0.0, 0.0, 0.0, 0.0, 0.0, 0.0, 0.0)"
1677800720.138096,548,1677800720,115670680,imu1_frame,"$VNYMR,+006.918,+055.961,+065.573,-00.3152,+00.2040,+00.3255,+17.255,-09.129,-04.648,+02.118608,-01.101661,+00.611166*6C",0,0,0,,0.4535427682565348,0.42256336256158156,-0.2088044663789944,0.7563992707578663,"(0.0, 0.0, 0.0, 0.0, 0.0, 0.0, 0.0, 0.0, 0.0)",2.118608,-1.101661,0.611166,"(0.0, 0.0, 0.0, 0.0, 0.0, 0.0, 0.0, 0.0, 0.0)",17.255,-9.129,-4.648,"(0.0, 0.0, 0.0, 0.0, 0.0, 0.0, 0.0, 0.0, 0.0)",0,0,0,,-0.3152,0.204,0.3255,"(0.0, 0.0, 0.0, 0.0, 0.0, 0.0, 0.0, 0.0, 0.0)"
1677800720.1849232,549,1677800720,141014337,imu1_frame,"$VNYMR,+004.511,+054.022,+066.844,-00.3057,+00.2284,+00.3344,+19.904,-10.009,-06.853,+02.378783,-01.747115,+00.943050*67",0,0,0,,0.47542114302051325,0.39807873243697495,-0.22069427361735366,0.7528626017693724,"(0.0, 0.0, 0.0, 0.0, 0.0, 0.0, 0.0, 0.0, 0.0)",2.378783,-1.747115,0.94305,"(0.0, 0.0, 0.0, 0.0, 0.0, 0.0, 0.0, 0.0, 0.0)",19.904,-10.009,-6.853,"(0.0, 0.0, 0.0, 0.0, 0.0, 0.0, 0.0, 0.0, 0.0)",0,0,0,,-0.3057,0.2284,0.3344,"(0.0, 0.0, 0.0, 0.0, 0.0, 0.0, 0.0, 0.0, 0.0)"
1677800720.1849494,550,1677800720,164652109,imu1_frame,"$VNYMR,+001.164,+051.627,+068.297,-00.2876,+00.2449,+00.3344,+18.511,-11.464,-08.787,+03.249458,-02.014889,+01.180632*67",0,0,0,,0.5016405774115233,0.36548082032112306,-0.23685146867372298,0.747450254437533,"(0.0, 0.0, 0.0, 0.0, 0.0, 0.0, 0.0, 0.0, 0.0)",3.249458,-2.014889,1.180632,"(0.0, 0.0, 0.0, 0.0, 0.0, 0.0, 0.0, 0.0, 0.0)",18.511,-11.464,-8.787,"(0.0, 0.0, 0.0, 0.0, 0.0, 0.0, 0.0, 0.0, 0.0)",0,0,0,,-0.2876,0.2449,0.3344,"(0.0, 0.0, 0.0, 0.0, 0.0, 0.0, 0.0, 0.0, 0.0)"
1677800720.2300014,551,1677800720,189975738,imu1_frame,"$VNYMR,-001.534,+048.663,+071.801,-00.2659,+00.2792,+00.3227,+18.101,-09.811,-08.996,+04.215444,-01.650502,+01.741044*6F",0,0,0,,0.5387151485378624,0.32656536595911584,-0.2514559169539036,0.7347863446748919,"(0.0, 0.0, 0.0, 0.0, 0.0, 0.0, 0.0, 0.0, 0.0)",4.215444,-1.650502,1.741044,"(0.0, 0.0, 0.0, 0.0, 0.0, 0.0, 0.0, 0.0, 0.0)",18.101,-9.811,-8.996,"(0.0, 0.0, 0.0, 0.0, 0.0, 0.0, 0.0, 0.0, 0.0)",0,0,0,,-0.2659,0.2792,0.3227,"(0.0, 0.0, 0.0, 0.0, 0.0, 0.0, 0.0, 0.0, 0.0)"
1677800720.2300272,552,1677800720,215369701,imu1_frame,"$VNYMR,-003.108,+045.079,+077.136,-00.2412,+00.3233,+00.2951,+19.116,-06.177,-08.992,+04.630260,-01.266407,+02.653240*60",0,0,0,,0.5837376032447745,0.2839801665406966,-0.2584743972376515,0.7153996516229215,"(0.0, 0.0, 0.0, 0.0, 0.0, 0.0, 0.0, 0.0, 0.0)",4.63026,-1.266407,2.65324,"(0.0, 0.0, 0.0, 0.0, 0.0, 0.0, 0.0, 0.0, 0.0)",19.116,-6.177,-8.992,"(0.0, 0.0, 0.0, 0.0, 0.0, 0.0, 0.0, 0.0, 0.0)",0,0,0,,-0.2412,0.3233,0.2951,"(0.0, 0.0, 0.0, 0.0, 0.0, 0.0, 0.0, 0.0, 0.0)"
1677800720.2730691,553,1677800720,240712881,imu1_frame,"$VNYMR,-003.501,+040.241,+082.895,-00.2163,+00.3689,+00.2706,+17.985,-06.532,-08.444,+03.735350,-00.218204,+03.516502*60",0,0,0,,0.6291229532309824,0.23873972571129753,-0.24909568301383686,0.6965335553934867,"(0.0, 0.0, 0.0, 0.0, 0.0, 0.0, 0.0, 0.0, 0.0)",3.73535,-0.218204,3.516502,"(0.0, 0.0, 0.0, 0.0, 0.0, 0.0, 0.0, 0.0, 0.0)",17.985,-6.532,-8.444,"(0.0, 0.0, 0.0, 0.0, 0.0, 0.0, 0.0, 0.0, 0.0)",0,0,0,,-0.2163,0.3689,0.2706,"(0.0, 0.0, 0.0, 0.0, 0.0, 0.0, 0.0, 0.0, 0.0)"
1677800720.2730951,554,1677800720,266082525,imu1_frame,"$VNYMR,-001.638,+035.317,+088.723,-00.1905,+00.3930,+00.2397,+17.106,-05.573,-06.768,+03.144320,+01.282965,+03.534670*66",0,0,0,,0.6692704595831998,0.20732760997534097,-0.2218083030035162,0.6781544004059149,"(0.0, 0.0, 0.0, 0.0, 0.0, 0.0, 0.0, 0.0, 0.0)",3.14432,1.282965,3.53467,"(0.0, 0.0, 0.0, 0.0, 0.0, 0.0, 0.0, 0.0, 0.0)",17.106,-5.573,-6.768,"(0.0, 0.0, 0.0, 0.0, 0.0, 0.0, 0.0, 0.0, 0.0)",0,0,0,,-0.1905,0.393,0.2397,"(0.0, 0.0, 0.0, 0.0, 0.0, 0.0, 0.0, 0.0, 0.0)"
1677800720.3172092,555,1677800720,289648532,imu1_frame,"$VNYMR,+000.664,+030.193,+095.015,-00.1688,+00.4104,+00.1953,+14.423,-04.909,-06.456,+03.822945,+01.566058,+03.480774*60",0,0,0,,0.7108868305104149,0.18005154178053157,-0.1882613544252916,0.6532832608748403,"(0.0, 0.0, 0.0, 0.0, 0.0, 0.0, 0.0, 0.0, 0.0)",3.822945,1.566058,3.480774,"(0.0, 0.0, 0.0, 0.0, 0.0, 0.0, 0.0, 0.0, 0.0)",14.423,-4.909,-6.456,"(0.0, 0.0, 0.0, 0.0, 0.0, 0.0, 0.0, 0.0, 0.0)",0,0,0,,-0.1688,0.4104,0.1953,"(0.0, 0.0, 0.0, 0.0, 0.0, 0.0, 0.0, 0.0, 0.0)"
1677800720.3172293,556,1677800720,315014123,imu1_frame,"$VNYMR,+002.802,+024.942,+101.920,-00.1439,+00.4484,+00.1520,+12.954,-03.360,-05.948,+04.185026,+02.056228,+03.443935*60",0,0,0,,0.7548281230023276,0.15451745230099806,-0.1526395141088595,0.6189184440552755,"(0.0, 0.0, 0.0, 0.0, 0.0, 0.0, 0.0, 0.0, 0.0)",4.185026,2.056228,3.443935,"(0.0, 0.0, 0.0, 0.0, 0.0, 0.0, 0.0, 0.0, 0.0)",12.954,-3.36,-5.948,"(0.0, 0.0, 0.0, 0.0, 0.0, 0.0, 0.0, 0.0, 0.0)",0,0,0,,-0.1439,0.4484,0.152,"(0.0, 0.0, 0.0, 0.0, 0.0, 0.0, 0.0, 0.0, 0.0)"
1677800720.3620238,557,1677800720,340455532,imu1_frame,"$VNYMR,+004.741,+019.163,+108.537,-00.1115,+00.4667,+00.0903,+11.562,-02.324,-04.855,+04.033617,+02.340114,+03.623170*6A",0,0,0,,0.7957328772870316,0.13022888356388385,-0.11118507441101207,0.5809367479497436,"(0.0, 0.0, 0.0, 0.0, 0.0, 0.0, 0.0, 0.0, 0.0)",4.033617,2.340114,3.62317,"(0.0, 0.0, 0.0, 0.0, 0.0, 0.0, 0.0, 0.0, 0.0)",11.562,-2.324,-4.855,"(0.0, 0.0, 0.0, 0.0, 0.0, 0.0, 0.0, 0.0, 0.0)",0,0,0,,-0.1115,0.4667,0.0903,"(0.0, 0.0, 0.0, 0.0, 0.0, 0.0, 0.0, 0.0, 0.0)"
1677800720.4062839,558,1677800720,365808010,imu1_frame,"$VNYMR,+006.087,+013.199,+114.468,-00.0771,+00.4730,+00.0506,+10.076,-01.772,-04.409,+03.792718,+02.387280,+03.443297*6D",0,0,0,,0.8308353174144281,0.10646299836875378,-0.06796103206212128,0.5419959441142089,"(0.0, 0.0, 0.0, 0.0, 0.0, 0.0, 0.0, 0.0, 0.0)",3.792718,2.38728,3.443297,"(0.0, 0.0, 0.0, 0.0, 0.0, 0.0, 0.0, 0.0, 0.0)",10.076,-1.772,-4.409,"(0.0, 0.0, 0.0, 0.0, 0.0, 0.0, 0.0, 0.0, 0.0)",0,0,0,,-0.0771,0.473,0.0506,"(0.0, 0.0, 0.0, 0.0, 0.0, 0.0, 0.0, 0.0, 0.0)"
1677800720.4062984,559,1677800720,391148090,imu1_frame,"$VNYMR,+007.124,+007.533,+119.939,-00.0426,+00.4826,-00.0059,+08.199,-01.217,-03.689,+03.565443,+02.503364,+03.006072*69",0,0,0,,0.8601777081060761,0.08648422566366397,-0.02573649904784289,0.5019486246674005,"(0.0, 0.0, 0.0, 0.0, 0.0, 0.0, 0.0, 0.0, 0.0)",3.565443,2.503364,3.006072,"(0.0, 0.0, 0.0, 0.0, 0.0, 0.0, 0.0, 0.0, 0.0)",8.199,-1.217,-3.689,"(0.0, 0.0, 0.0, 0.0, 0.0, 0.0, 0.0, 0.0, 0.0)",0,0,0,,-0.0426,0.4826,-0.0059,"(0.0, 0.0, 0.0, 0.0, 0.0, 0.0, 0.0, 0.0, 0.0)"
1677800720.449991,560,1677800720,414769649,imu1_frame,"$VNYMR,+008.342,+002.134,+124.910,-00.0072,+00.4734,-00.0466,+06.348,-00.345,-03.128,+03.312093,+02.878415,+02.520532*63",0,0,0,,0.883519868412708,0.07306638969448022,0.017162314251341144,0.4623412157557917,"(0.0, 0.0, 0.0, 0.0, 0.0, 0.0, 0.0, 0.0, 0.0)",3.312093,2.878415,2.520532,"(0.0, 0.0, 0.0, 0.0, 0.0, 0.0, 0.0, 0.0, 0.0)",6.348,-0.345,-3.128,"(0.0, 0.0, 0.0, 0.0, 0.0, 0.0, 0.0, 0.0, 0.0)",0,0,0,,-0.0072,0.4734,-0.0466,"(0.0, 0.0, 0.0, 0.0, 0.0, 0.0, 0.0, 0.0, 0.0)"
1677800720.4500175,561,1677800720,440163612,imu1_frame,"$VNYMR,+009.892,-002.956,+129.446,+00.0217,+00.4764,-00.0734,+04.665,+00.718,-02.729,+03.119869,+03.063491,+01.933253*69",0,0,0,,0.9015367753040484,0.06696344791680409,0.06003856408427741,0.42325253719283185,"(0.0, 0.0, 0.0, 0.0, 0.0, 0.0, 0.0, 0.0, 0.0)",3.119869,3.063491,1.933253,"(0.0, 0.0, 0.0, 0.0, 0.0, 0.0, 0.0, 0.0, 0.0)",4.665,0.718,-2.729,"(0.0, 0.0, 0.0, 0.0, 0.0, 0.0, 0.0, 0.0, 0.0)",0,0,0,,0.0217,0.4764,-0.0734,"(0.0, 0.0, 0.0, 0.0, 0.0, 0.0, 0.0, 0.0, 0.0)"
1677800720.4927475,562,1677800720,465497970,imu1_frame,"$VNYMR,+011.738,-007.431,+133.601,+00.0495,+00.4654,-00.1185,+03.733,+01.425,-01.682,+02.982995,+02.961786,+01.183033*64",0,0,0,,0.9150094560076967,0.0683943783484114,0.09944685057461575,0.38495483934823255,"(0.0, 0.0, 0.0, 0.0, 0.0, 0.0, 0.0, 0.0, 0.0)",2.982995,2.961786,1.183033,"(0.0, 0.0, 0.0, 0.0, 0.0, 0.0, 0.0, 0.0, 0.0)",3.733,1.425,-1.682,"(0.0, 0.0, 0.0, 0.0, 0.0, 0.0, 0.0, 0.0, 0.0)",0,0,0,,0.0495,0.4654,-0.1185,"(0.0, 0.0, 0.0, 0.0, 0.0, 0.0, 0.0, 0.0, 0.0)"
1677800720.4936664,563,1677800720,490922927,imu1_frame,"$VNYMR,+013.983,-011.044,+137.446,+00.0678,+00.4630,-00.1485,+02.457,+01.677,-01.218,+02.930073,+02.866687,+00.309413*61",0,0,0,,0.9248662421458733,0.07823949938653749,0.1329671974520064,0.3475927779406155,"(0.0, 0.0, 0.0, 0.0, 0.0, 0.0, 0.0, 0.0, 0.0)",2.930073,2.866687,0.309413,"(0.0, 0.0, 0.0, 0.0, 0.0, 0.0, 0.0, 0.0, 0.0)",2.457,1.677,-1.218,"(0.0, 0.0, 0.0, 0.0, 0.0, 0.0, 0.0, 0.0, 0.0)",0,0,0,,0.0678,0.463,-0.1485,"(0.0, 0.0, 0.0, 0.0, 0.0, 0.0, 0.0, 0.0, 0.0)"
1677800720.53666,564,1677800720,516297101,imu1_frame,"$VNYMR,+017.315,-014.200,+140.185,+00.0818,+00.4484,-00.1726,+00.877,+00.172,-00.768,+01.825789,+03.396242,-00.611916*60",0,0,0,,0.9287377553228184,0.09884019307229375,0.16575331165245916,0.316548002280234,"(0.0, 0.0, 0.0, 0.0, 0.0, 0.0, 0.0, 0.0, 0.0)",1.825789,3.396242,-0.611916,"(0.0, 0.0, 0.0, 0.0, 0.0, 0.0, 0.0, 0.0, 0.0)",0.877,0.172,-0.768,"(0.0, 0.0, 0.0, 0.0, 0.0, 0.0, 0.0, 0.0, 0.0)",0,0,0,,0.0818,0.4484,-0.1726,"(0.0, 0.0, 0.0, 0.0, 0.0, 0.0, 0.0, 0.0, 0.0)"
1677800720.5810633,565,1677800720,539753675,imu1_frame,"$VNYMR,+021.915,-017.933,+139.768,+00.0934,+00.4486,-00.1644,-00.351,-01.017,+01.242,-00.210520,+04.361786,-00.562799*64",0,0,0,,0.9208019882422178,0.12367902191683328,0.20825530333802295,0.3057072564046561,"(0.0, 0.0, 0.0, 0.0, 0.0, 0.0, 0.0, 0.0, 0.0)",-0.21052,4.361786,-0.562799,"(0.0, 0.0, 0.0, 0.0, 0.0, 0.0, 0.0, 0.0, 0.0)",-0.351,-1.017,1.242,"(0.0, 0.0, 0.0, 0.0, 0.0, 0.0, 0.0, 0.0, 0.0)",0,0,0,,0.0934,0.4486,-0.1644,"(0.0, 0.0, 0.0, 0.0, 0.0, 0.0, 0.0, 0.0, 0.0)"
1677800720.5810888,566,1677800720,565247058,imu1_frame,"$VNYMR,+026.251,-022.852,+136.889,+00.1197,+00.4508,-00.1396,-01.253,-00.611,-00.190,-01.181394,+04.555935,+00.555214*64",0,0,0,,0.9043411976887599,0.13613545570604113,0.2612118161142738,0.30887298843513467,"(0.0, 0.0, 0.0, 0.0, 0.0, 0.0, 0.0, 0.0, 0.0)",-1.181394,4.555935,0.555214,"(0.0, 0.0, 0.0, 0.0, 0.0, 0.0, 0.0, 0.0, 0.0)",-1.253,-0.611,-0.19,"(0.0, 0.0, 0.0, 0.0, 0.0, 0.0, 0.0, 0.0, 0.0)",0,0,0,,0.1197,0.4508,-0.1396,"(0.0, 0.0, 0.0, 0.0, 0.0, 0.0, 0.0, 0.0, 0.0)"
1677800720.6248174,567,1677800720,590605735,imu1_frame,"$VNYMR,+030.635,-028.004,+133.312,+00.1502,+00.4607,-00.1169,-01.781,-00.347,+01.174,-01.063358,+04.404151,+00.524153*6B",0,0,0,,0.8845426749408474,0.1428675284118714,0.3158247456569385,0.3121343549894879,"(0.0, 0.0, 0.0, 0.0, 0.0, 0.0, 0.0, 0.0, 0.0)",-1.063358,4.404151,0.524153,"(0.0, 0.0, 0.0, 0.0, 0.0, 0.0, 0.0, 0.0, 0.0)",-1.781,-0.347,1.174,"(0.0, 0.0, 0.0, 0.0, 0.0, 0.0, 0.0, 0.0, 0.0)",0,0,0,,0.1502,0.4607,-0.1169,"(0.0, 0.0, 0.0, 0.0, 0.0, 0.0, 0.0, 0.0, 0.0)"
1677800720.624844,568,1677800720,615958452,imu1_frame,"$VNYMR,+035.903,-032.039,+129.662,+00.1642,+00.4717,-00.0833,-02.151,-00.309,+01.080,-00.349153,+04.207200,-00.479999*60",0,0,0,,0.8637359173268624,0.15646588860495284,0.3635938339986087,0.3118945570233281,"(0.0, 0.0, 0.0, 0.0, 0.0, 0.0, 0.0, 0.0, 0.0)",-0.349153,4.2072,-0.479999,"(0.0, 0.0, 0.0, 0.0, 0.0, 0.0, 0.0, 0.0, 0.0)",-2.151,-0.309,1.08,"(0.0, 0.0, 0.0, 0.0, 0.0, 0.0, 0.0, 0.0, 0.0)",0,0,0,,0.1642,0.4717,-0.0833,"(0.0, 0.0, 0.0, 0.0, 0.0, 0.0, 0.0, 0.0, 0.0)"
1677800720.6727457,569,1677800720,639525651,imu1_frame,"$VNYMR,+041.361,-034.020,+127.275,+00.1726,+00.4750,-00.0694,-03.191,+00.112,+03.101,+01.070711,+02.321692,-00.860250*6D",0,0,0,,0.8474724236231661,0.1810553600612851,0.395184233733578,0.3046947147552125,"(0.0, 0.0, 0.0, 0.0, 0.0, 0.0, 0.0, 0.0, 0.0)",1.070711,2.321692,-0.86025,"(0.0, 0.0, 0.0, 0.0, 0.0, 0.0, 0.0, 0.0, 0.0)",-3.191,0.112,3.101,"(0.0, 0.0, 0.0, 0.0, 0.0, 0.0, 0.0, 0.0, 0.0)",0,0,0,,0.1726,0.475,-0.0694,"(0.0, 0.0, 0.0, 0.0, 0.0, 0.0, 0.0, 0.0, 0.0)"
1677800720.6727593,570,1677800720,664839267,imu1_frame,"$VNYMR,+044.005,-034.131,+127.770,+00.1685,+00.4783,-00.0926,-03.230,-00.958,+00.874,+01.330931,+01.006015,-00.973330*6B",0,0,0,,0.844254711567326,0.20182103580321675,0.4019628418609207,0.2914243045231134,"(0.0, 0.0, 0.0, 0.0, 0.0, 0.0, 0.0, 0.0, 0.0)",1.330931,1.006015,-0.97333,"(0.0, 0.0, 0.0, 0.0, 0.0, 0.0, 0.0, 0.0, 0.0)",-3.23,-0.958,0.874,"(0.0, 0.0, 0.0, 0.0, 0.0, 0.0, 0.0, 0.0, 0.0)",0,0,0,,0.1685,0.4783,-0.0926,"(0.0, 0.0, 0.0, 0.0, 0.0, 0.0, 0.0, 0.0, 0.0)"
1677800720.716933,571,1677800720,690249204,imu1_frame,"$VNYMR,+046.352,-034.016,+127.807,+00.1643,+00.4893,-00.0894,-03.097,-02.878,+00.166,+00.505092,+01.227135,-00.808689*62",0,0,0,,0.8401123516098471,0.21969266387274622,0.40703488743855626,0.28331779068909696,"(0.0, 0.0, 0.0, 0.0, 0.0, 0.0, 0.0, 0.0, 0.0)",0.505092,1.227135,-0.808689,"(0.0, 0.0, 0.0, 0.0, 0.0, 0.0, 0.0, 0.0, 0.0)",-3.097,-2.878,0.166,"(0.0, 0.0, 0.0, 0.0, 0.0, 0.0, 0.0, 0.0, 0.0)",0,0,0,,0.1643,0.4893,-0.0894,"(0.0, 0.0, 0.0, 0.0, 0.0, 0.0, 0.0, 0.0, 0.0)"
1677800720.7177916,572,1677800720,715624332,imu1_frame,"$VNYMR,+049.059,-034.780,+125.967,+00.1632,+00.4872,-00.0823,-03.342,-03.250,-01.076,-00.495939,+01.739575,-00.318070*66",0,0,0,,0.8297909507675442,0.22944239197391142,0.4221954302315518,0.28382069248238373,"(0.0, 0.0, 0.0, 0.0, 0.0, 0.0, 0.0, 0.0, 0.0)",-0.495939,1.739575,-0.31807,"(0.0, 0.0, 0.0, 0.0, 0.0, 0.0, 0.0, 0.0, 0.0)",-3.342,-3.25,-1.076,"(0.0, 0.0, 0.0, 0.0, 0.0, 0.0, 0.0, 0.0, 0.0)",0,0,0,,0.1632,0.4872,-0.0823,"(0.0, 0.0, 0.0, 0.0, 0.0, 0.0, 0.0, 0.0, 0.0)"
1677800720.7607367,573,1677800720,741003036,imu1_frame,"$VNYMR,+051.851,-036.195,+123.406,+00.1704,+00.4939,-00.0601,-03.774,-04.278,-00.428,-00.752440,+01.822251,-00.043071*66",0,0,0,,0.8170956814070249,0.23347839883971147,0.4429884189170056,0.28566369283940474,"(0.0, 0.0, 0.0, 0.0, 0.0, 0.0, 0.0, 0.0, 0.0)",-0.75244,1.822251,-0.043071,"(0.0, 0.0, 0.0, 0.0, 0.0, 0.0, 0.0, 0.0, 0.0)",-3.774,-4.278,-0.428,"(0.0, 0.0, 0.0, 0.0, 0.0, 0.0, 0.0, 0.0, 0.0)",0,0,0,,0.1704,0.4939,-0.0601,"(0.0, 0.0, 0.0, 0.0, 0.0, 0.0, 0.0, 0.0, 0.0)"
1677800720.8097143,574,1677800720,766359329,imu1_frame,"$VNYMR,+053.628,-037.567,+121.301,+00.1788,+00.5049,-00.0536,-04.348,-04.393,+01.764,-00.894223,+01.273746,+00.854902*68",0,0,0,,0.8076843845929257,0.23140419465739331,0.4598086214926034,0.2875309812538152,"(0.0, 0.0, 0.0, 0.0, 0.0, 0.0, 0.0, 0.0, 0.0)",-0.894223,1.273746,0.854902,"(0.0, 0.0, 0.0, 0.0, 0.0, 0.0, 0.0, 0.0, 0.0)",-4.348,-4.393,1.764,"(0.0, 0.0, 0.0, 0.0, 0.0, 0.0, 0.0, 0.0, 0.0)",0,0,0,,0.1788,0.5049,-0.0536,"(0.0, 0.0, 0.0, 0.0, 0.0, 0.0, 0.0, 0.0, 0.0)"
1677800720.8097355,575,1677800720,789946317,imu1_frame,"$VNYMR,+054.193,-039.755,+119.103,+00.1944,+00.5038,-00.0224,-04.147,-04.048,+01.223,-01.359146,+01.010128,+01.288012*6C",0,0,0,,0.8002222039955909,0.21588407254838918,0.4780191792357418,0.2907510201790334,"(0.0, 0.0, 0.0, 0.0, 0.0, 0.0, 0.0, 0.0, 0.0)",-1.359146,1.010128,1.288012,"(0.0, 0.0, 0.0, 0.0, 0.0, 0.0, 0.0, 0.0, 0.0)",-4.147,-4.048,1.223,"(0.0, 0.0, 0.0, 0.0, 0.0, 0.0, 0.0, 0.0, 0.0)",0,0,0,,0.1944,0.5038,-0.0224,"(0.0, 0.0, 0.0, 0.0, 0.0, 0.0, 0.0, 0.0, 0.0)"
1677800720.8534927,576,1677800720,815302371,imu1_frame,"$VNYMR,+055.289,-042.065,+115.992,+00.2159,+00.4922,+00.0130,-03.996,-03.026,-00.778,-01.867701,+01.573432,+01.021369*66",0,0,0,,0.7894110332115712,0.19875555652396118,0.499124518393408,0.2969868086855687,"(0.0, 0.0, 0.0, 0.0, 0.0, 0.0, 0.0, 0.0, 0.0)",-1.867701,1.573432,1.021369,"(0.0, 0.0, 0.0, 0.0, 0.0, 0.0, 0.0, 0.0, 0.0)",-3.996,-3.026,-0.778,"(0.0, 0.0, 0.0, 0.0, 0.0, 0.0, 0.0, 0.0, 0.0)",0,0,0,,0.2159,0.4922,0.013,"(0.0, 0.0, 0.0, 0.0, 0.0, 0.0, 0.0, 0.0, 0.0)"
1677800720.8535175,577,1677800720,840701580,imu1_frame,"$VNYMR,+058.760,-042.588,+111.925,+00.2179,+00.4901,+00.0228,-02.082,-02.534,+00.539,-00.911299,+01.989798,-01.360591*6B",0,0,0,,0.7725183402209949,0.2016642694888177,0.5180887402436513,0.3068077470770375,"(0.0, 0.0, 0.0, 0.0, 0.0, 0.0, 0.0, 0.0, 0.0)",-0.911299,1.989798,-1.360591,"(0.0, 0.0, 0.0, 0.0, 0.0, 0.0, 0.0, 0.0, 0.0)",-2.082,-2.534,0.539,"(0.0, 0.0, 0.0, 0.0, 0.0, 0.0, 0.0, 0.0, 0.0)",0,0,0,,0.2179,0.4901,0.0228,"(0.0, 0.0, 0.0, 0.0, 0.0, 0.0, 0.0, 0.0, 0.0)"
1677800720.8983557,578,1677800720,866296052,imu1_frame,"$VNYMR,+064.024,-043.386,+108.465,+00.2124,+00.5034,+00.0509,-02.135,+00.609,-00.755,+00.754859,+02.933499,+00.091958*6F",0,0,0,,0.7538130214817077,0.21645970137872775,0.5422089415312168,0.30153041313812456,"(0.0, 0.0, 0.0, 0.0, 0.0, 0.0, 0.0, 0.0, 0.0)",0.754859,2.933499,0.091958,"(0.0, 0.0, 0.0, 0.0, 0.0, 0.0, 0.0, 0.0, 0.0)",-2.135,0.609,-0.755,"(0.0, 0.0, 0.0, 0.0, 0.0, 0.0, 0.0, 0.0, 0.0)",0,0,0,,0.2124,0.5034,0.0509,"(0.0, 0.0, 0.0, 0.0, 0.0, 0.0, 0.0, 0.0, 0.0)"
1677800720.898383,579,1677800720,889596462,imu1_frame,"$VNYMR,+069.680,-044.658,+106.818,+00.2146,+00.5034,+00.0475,-03.603,+00.630,-02.689,+02.065830,+02.906653,-00.124288*63",0,0,0,,0.7389577974424363,0.23842114918588633,0.5653748114338213,0.27829490080861297,"(0.0, 0.0, 0.0, 0.0, 0.0, 0.0, 0.0, 0.0, 0.0)",2.06583,2.906653,-0.124288,"(0.0, 0.0, 0.0, 0.0, 0.0, 0.0, 0.0, 0.0, 0.0)",-3.603,0.63,-2.689,"(0.0, 0.0, 0.0, 0.0, 0.0, 0.0, 0.0, 0.0, 0.0)",0,0,0,,0.2146,0.5034,0.0475,"(0.0, 0.0, 0.0, 0.0, 0.0, 0.0, 0.0, 0.0, 0.0)"
1677800720.9419093,580,1677800720,915033102,imu1_frame,"$VNYMR,+073.879,-045.157,+107.262,+00.2114,+00.4913,+00.0438,-04.576,-00.101,-04.332,+02.538946,+01.171417,-00.358028*6F",0,0,0,,0.7310828054413874,0.26484722117586795,0.5761556116971145,0.2518304829310687,"(0.0, 0.0, 0.0, 0.0, 0.0, 0.0, 0.0, 0.0, 0.0)",2.538946,1.171417,-0.358028,"(0.0, 0.0, 0.0, 0.0, 0.0, 0.0, 0.0, 0.0, 0.0)",-4.576,-0.101,-4.332,"(0.0, 0.0, 0.0, 0.0, 0.0, 0.0, 0.0, 0.0, 0.0)",0,0,0,,0.2114,0.4913,0.0438,"(0.0, 0.0, 0.0, 0.0, 0.0, 0.0, 0.0, 0.0, 0.0)"
1677800720.9430087,581,1677800720,940345764,imu1_frame,"$VNYMR,+073.162,-044.473,+111.342,+00.2086,+00.4955,+00.0041,-06.324,-02.062,-06.650,+02.219713,-01.349451,-00.218374*66",0,0,0,,0.7410080835184552,0.28417457340377394,0.5620449721988896,0.232931923997203,"(0.0, 0.0, 0.0, 0.0, 0.0, 0.0, 0.0, 0.0, 0.0)",2.219713,-1.349451,-0.218374,"(0.0, 0.0, 0.0, 0.0, 0.0, 0.0, 0.0, 0.0, 0.0)",-6.324,-2.062,-6.65,"(0.0, 0.0, 0.0, 0.0, 0.0, 0.0, 0.0, 0.0, 0.0)",0,0,0,,0.2086,0.4955,0.0041,"(0.0, 0.0, 0.0, 0.0, 0.0, 0.0, 0.0, 0.0, 0.0)"
1677800720.985362,582,1677800720,965839862,imu1_frame,"$VNYMR,+068.543,-042.933,+116.645,+00.2047,+00.4855,-00.0249,-04.686,-03.573,-07.139,+01.149920,-03.548311,+00.170378*69",0,0,0,,0.7626965849399392,0.2871663603256763,0.5325636789840691,0.22848485430157414,"(0.0, 0.0, 0.0, 0.0, 0.0, 0.0, 0.0, 0.0, 0.0)",1.14992,-3.548311,0.170378,"(0.0, 0.0, 0.0, 0.0, 0.0, 0.0, 0.0, 0.0, 0.0)",-4.686,-3.573,-7.139,"(0.0, 0.0, 0.0, 0.0, 0.0, 0.0, 0.0, 0.0, 0.0)",0,0,0,,0.2047,0.4855,-0.0249,"(0.0, 0.0, 0.0, 0.0, 0.0, 0.0, 0.0, 0.0, 0.0)"
1677800721.0292602,583,1677800720,991155385,imu1_frame,"$VNYMR,+060.773,-041.436,+122.725,+00.2070,+00.4832,-00.0450,-05.167,-03.876,-06.264,-00.221557,-03.975430,+01.905433*68",0,0,0,,0.7939099831430938,0.2689840122346882,0.49459109694328585,0.22963925329154608,"(0.0, 0.0, 0.0, 0.0, 0.0, 0.0, 0.0, 0.0, 0.0)",-0.221557,-3.97543,1.905433,"(0.0, 0.0, 0.0, 0.0, 0.0, 0.0, 0.0, 0.0, 0.0)",-5.167,-3.876,-6.264,"(0.0, 0.0, 0.0, 0.0, 0.0, 0.0, 0.0, 0.0, 0.0)",0,0,0,,0.207,0.4832,-0.045,"(0.0, 0.0, 0.0, 0.0, 0.0, 0.0, 0.0, 0.0, 0.0)"
1677800721.0292833,584,1677800721,14698266,imu1_frame,"$VNYMR,+052.811,-041.601,+125.580,+00.2302,+00.4732,-00.0540,-07.168,-06.766,-05.294,-02.286946,-02.865235,+02.422789*65",0,0,0,,0.816846827130111,0.2242921693375172,0.4729637141629305,0.2424038136386199,"(0.0, 0.0, 0.0, 0.0, 0.0, 0.0, 0.0, 0.0, 0.0)",-2.286946,-2.865235,2.422789,"(0.0, 0.0, 0.0, 0.0, 0.0, 0.0, 0.0, 0.0, 0.0)",-7.168,-6.766,-5.294,"(0.0, 0.0, 0.0, 0.0, 0.0, 0.0, 0.0, 0.0, 0.0)",0,0,0,,0.2302,0.4732,-0.054,"(0.0, 0.0, 0.0, 0.0, 0.0, 0.0, 0.0, 0.0, 0.0)"
1677800721.0765185,585,1677800721,40108203,imu1_frame,"$VNYMR,+046.567,-041.783,+126.988,+00.2480,+00.4578,-00.0429,-06.955,-07.494,-01.233,-01.681113,-02.161592,+01.864160*6D",0,0,0,,0.830875140423806,0.1842904232167491,0.4579405036730073,0.25685411429841754,"(0.0, 0.0, 0.0, 0.0, 0.0, 0.0, 0.0, 0.0, 0.0)",-1.681113,-2.161592,1.86416,"(0.0, 0.0, 0.0, 0.0, 0.0, 0.0, 0.0, 0.0, 0.0)",-6.955,-7.494,-1.233,"(0.0, 0.0, 0.0, 0.0, 0.0, 0.0, 0.0, 0.0, 0.0)",0,0,0,,0.248,0.4578,-0.0429,"(0.0, 0.0, 0.0, 0.0, 0.0, 0.0, 0.0, 0.0, 0.0)"
1677800721.0765452,586,1677800721,65490245,imu1_frame,"$VNYMR,+042.682,-043.091,+126.571,+00.2678,+00.4424,-00.0222,-08.606,-07.242,+02.191,-02.301714,-00.386147,+01.992132*6C",0,0,0,,0.8339519122122568,0.14858754913693928,0.45771286765214425,0.2700830967399636,"(0.0, 0.0, 0.0, 0.0, 0.0, 0.0, 0.0, 0.0, 0.0)",-2.301714,-0.386147,1.992132,"(0.0, 0.0, 0.0, 0.0, 0.0, 0.0, 0.0, 0.0, 0.0)",-8.606,-7.242,2.191,"(0.0, 0.0, 0.0, 0.0, 0.0, 0.0, 0.0, 0.0, 0.0)",0,0,0,,0.2678,0.4424,-0.0222,"(0.0, 0.0, 0.0, 0.0, 0.0, 0.0, 0.0, 0.0, 0.0)"
1677800721.116635,587,1677800721,90811729,imu1_frame,"$VNYMR,+040.444,-045.125,+126.070,+00.2822,+00.4259,+00.0078,-10.650,-05.038,-00.124,-00.604059,+00.035417,+01.691861*63",0,0,0,,0.8324714836564292,0.12124091428063027,0.46563923391272477,0.2747216290073122,"(0.0, 0.0, 0.0, 0.0, 0.0, 0.0, 0.0, 0.0, 0.0)",-0.604059,0.035417,1.691861,"(0.0, 0.0, 0.0, 0.0, 0.0, 0.0, 0.0, 0.0, 0.0)",-10.65,-5.038,-0.124,"(0.0, 0.0, 0.0, 0.0, 0.0, 0.0, 0.0, 0.0, 0.0)",0,0,0,,0.2822,0.4259,0.0078,"(0.0, 0.0, 0.0, 0.0, 0.0, 0.0, 0.0, 0.0, 0.0)"
1677800721.1184874,588,1677800721,116496324,imu1_frame,"$VNYMR,+039.322,-047.202,+126.833,+00.3032,+00.4094,+00.0095,-12.605,-04.743,-01.885,+00.001096,+00.837114,+01.378480*69",0,0,0,,0.8319860420648353,0.10699942800577619,0.47513594714347707,0.2656994165364265,"(0.0, 0.0, 0.0, 0.0, 0.0, 0.0, 0.0, 0.0, 0.0)",0.001096,0.837114,1.37848,"(0.0, 0.0, 0.0, 0.0, 0.0, 0.0, 0.0, 0.0, 0.0)",-12.605,-4.743,-1.885,"(0.0, 0.0, 0.0, 0.0, 0.0, 0.0, 0.0, 0.0, 0.0)",0,0,0,,0.3032,0.4094,0.0095,"(0.0, 0.0, 0.0, 0.0, 0.0, 0.0, 0.0, 0.0, 0.0)"
1677800721.1612048,589,1677800721,139728307,imu1_frame,"$VNYMR,+040.470,-050.190,+125.562,+00.3147,+00.3940,+00.0213,-11.871,-02.562,-00.142,-00.476274,+02.207619,+01.325114*6C",0,0,0,,0.8227157829581049,0.09652136190209587,0.4971440510438128,0.2582056538496854,"(0.0, 0.0, 0.0, 0.0, 0.0, 0.0, 0.0, 0.0, 0.0)",-0.476274,2.207619,1.325114,"(0.0, 0.0, 0.0, 0.0, 0.0, 0.0, 0.0, 0.0, 0.0)",-11.871,-2.562,-0.142,"(0.0, 0.0, 0.0, 0.0, 0.0, 0.0, 0.0, 0.0, 0.0)",0,0,0,,0.3147,0.394,0.0213,"(0.0, 0.0, 0.0, 0.0, 0.0, 0.0, 0.0, 0.0, 0.0)"
1677800721.207177,590,1677800721,165167808,imu1_frame,"$VNYMR,+044.988,-053.465,+121.029,+00.3206,+00.3875,+00.0613,-10.530,-01.337,+00.394,-00.626176,+03.124468,+00.459417*6C",0,0,0,,0.8029991017816992,0.09287722489869851,0.529957128758336,0.25634294472663266,"(0.0, 0.0, 0.0, 0.0, 0.0, 0.0, 0.0, 0.0, 0.0)",-0.626176,3.124468,0.459417,"(0.0, 0.0, 0.0, 0.0, 0.0, 0.0, 0.0, 0.0, 0.0)",-10.53,-1.337,0.394,"(0.0, 0.0, 0.0, 0.0, 0.0, 0.0, 0.0, 0.0, 0.0)",0,0,0,,0.3206,0.3875,0.0613,"(0.0, 0.0, 0.0, 0.0, 0.0, 0.0, 0.0, 0.0, 0.0)"
1677800721.2071989,591,1677800721,190503358,imu1_frame,"$VNYMR,+051.763,-055.054,+115.866,+00.3172,+00.3789,+00.0886,-10.574,-02.090,-02.041,+00.603695,+02.757264,-01.036104*64",0,0,0,,0.7832239015350302,0.10727699003346253,0.5578825077546683,0.25262437533810644,"(0.0, 0.0, 0.0, 0.0, 0.0, 0.0, 0.0, 0.0, 0.0)",0.603695,2.757264,-1.036104,"(0.0, 0.0, 0.0, 0.0, 0.0, 0.0, 0.0, 0.0, 0.0)",-10.574,-2.09,-2.041,"(0.0, 0.0, 0.0, 0.0, 0.0, 0.0, 0.0, 0.0, 0.0)",0,0,0,,0.3172,0.3789,0.0886,"(0.0, 0.0, 0.0, 0.0, 0.0, 0.0, 0.0, 0.0, 0.0)"
1677800721.250262,592,1677800721,215909481,imu1_frame,"$VNYMR,+058.852,-054.914,+110.183,+00.2981,+00.3813,+00.1063,-12.017,-02.305,-04.776,-00.246785,+02.590472,-01.202303*63",0,0,0,,0.7634488957833261,0.1276924878818386,0.5788224774325329,0.25652475842427247,"(0.0, 0.0, 0.0, 0.0, 0.0, 0.0, 0.0, 0.0, 0.0)",-0.246785,2.590472,-1.202303,"(0.0, 0.0, 0.0, 0.0, 0.0, 0.0, 0.0, 0.0, 0.0)",-12.017,-2.305,-4.776,"(0.0, 0.0, 0.0, 0.0, 0.0, 0.0, 0.0, 0.0, 0.0)",0,0,0,,0.2981,0.3813,0.1063,"(0.0, 0.0, 0.0, 0.0, 0.0, 0.0, 0.0, 0.0, 0.0)"
1677800721.2502968,593,1677800721,241311073,imu1_frame,"$VNYMR,+066.329,-053.811,+103.543,+00.2799,+00.4002,+00.1335,-10.947,-02.067,-04.621,-00.441519,+02.699996,-01.754598*6B",0,0,0,,0.7395879474362592,0.14880888353171698,0.5994393853475665,0.2674658996642311,"(0.0, 0.0, 0.0, 0.0, 0.0, 0.0, 0.0, 0.0, 0.0)",-0.441519,2.699996,-1.754598,"(0.0, 0.0, 0.0, 0.0, 0.0, 0.0, 0.0, 0.0, 0.0)",-10.947,-2.067,-4.621,"(0.0, 0.0, 0.0, 0.0, 0.0, 0.0, 0.0, 0.0, 0.0)",0,0,0,,0.2799,0.4002,0.1335,"(0.0, 0.0, 0.0, 0.0, 0.0, 0.0, 0.0, 0.0, 0.0)"
1677800721.29258,594,1677800721,264847517,imu1_frame,"$VNYMR,+073.310,-051.968,+097.765,+00.2449,+00.3928,+00.1645,-09.255,-03.783,-05.163,-00.028585,+02.777191,-01.927760*6B",0,0,0,,0.7152885722013198,0.17315627991590873,0.6176947300502553,0.27718654670099485,"(0.0, 0.0, 0.0, 0.0, 0.0, 0.0, 0.0, 0.0, 0.0)",-0.028585,2.777191,-1.92776,"(0.0, 0.0, 0.0, 0.0, 0.0, 0.0, 0.0, 0.0, 0.0)",-9.255,-3.783,-5.163,"(0.0, 0.0, 0.0, 0.0, 0.0, 0.0, 0.0, 0.0, 0.0)",0,0,0,,0.2449,0.3928,0.1645,"(0.0, 0.0, 0.0, 0.0, 0.0, 0.0, 0.0, 0.0, 0.0)"
1677800721.2928343,595,1677800721,290383577,imu1_frame,"$VNYMR,+080.613,-049.235,+092.331,+00.2110,+00.4063,+00.1858,-07.796,-03.617,-04.977,+00.446740,+03.181356,-02.384846*68",0,0,0,,0.6867174803468084,0.2042003643762702,0.636437578940542,0.2857770485658895,"(0.0, 0.0, 0.0, 0.0, 0.0, 0.0, 0.0, 0.0, 0.0)",0.44674,3.181356,-2.384846,"(0.0, 0.0, 0.0, 0.0, 0.0, 0.0, 0.0, 0.0, 0.0)",-7.796,-3.617,-4.977,"(0.0, 0.0, 0.0, 0.0, 0.0, 0.0, 0.0, 0.0, 0.0)",0,0,0,,0.211,0.4063,0.1858,"(0.0, 0.0, 0.0, 0.0, 0.0, 0.0, 0.0, 0.0, 0.0)"
1677800721.34195,596,1677800721,315587997,imu1_frame,"$VNYMR,+086.641,-045.334,+089.973,+00.1764,+00.4226,+00.1737,-07.851,-05.341,-07.519,+02.268851,+02.400150,-03.018517*63",0,0,0,,0.6615936320162557,0.24925535505195856,0.6459701740409578,0.2879030536534065,"(0.0, 0.0, 0.0, 0.0, 0.0, 0.0, 0.0, 0.0, 0.0)",2.268851,2.40015,-3.018517,"(0.0, 0.0, 0.0, 0.0, 0.0, 0.0, 0.0, 0.0, 0.0)",-7.851,-5.341,-7.519,"(0.0, 0.0, 0.0, 0.0, 0.0, 0.0, 0.0, 0.0, 0.0)",0,0,0,,0.1764,0.4226,0.1737,"(0.0, 0.0, 0.0, 0.0, 0.0, 0.0, 0.0, 0.0, 0.0)"
1677800721.3861039,597,1677800721,340975522,imu1_frame,"$VNYMR,+091.204,-039.664,+090.930,+00.1250,+00.4415,+00.1625,-07.658,-10.524,-08.945,+02.955569,+02.584333,-04.946519*6C",0,0,0,,0.6391473878086014,0.3126305753892577,0.640585461769269,0.28879578625574776,"(0.0, 0.0, 0.0, 0.0, 0.0, 0.0, 0.0, 0.0, 0.0)",2.955569,2.584333,-4.946519,"(0.0, 0.0, 0.0, 0.0, 0.0, 0.0, 0.0, 0.0, 0.0)",-7.658,-10.524,-8.945,"(0.0, 0.0, 0.0, 0.0, 0.0, 0.0, 0.0, 0.0, 0.0)",0,0,0,,0.125,0.4415,0.1625,"(0.0, 0.0, 0.0, 0.0, 0.0, 0.0, 0.0, 0.0, 0.0)"
1677800721.3861883,598,1677800721,366355657,imu1_frame,"$VNYMR,+097.275,-031.346,+090.335,+00.0458,+00.4524,+00.1489,-06.586,-10.888,-05.207,+01.492243,+03.829392,-06.568817*67",0,0,0,,0.5941617191735472,0.38661164580449137,0.6360863457745811,0.3047908258399806,"(0.0, 0.0, 0.0, 0.0, 0.0, 0.0, 0.0, 0.0, 0.0)",1.492243,3.829392,-6.568817,"(0.0, 0.0, 0.0, 0.0, 0.0, 0.0, 0.0, 0.0, 0.0)",-6.586,-10.888,-5.207,"(0.0, 0.0, 0.0, 0.0, 0.0, 0.0, 0.0, 0.0, 0.0)",0,0,0,,0.0458,0.4524,0.1489,"(0.0, 0.0, 0.0, 0.0, 0.0, 0.0, 0.0, 0.0, 0.0)"
1677800721.4299898,599,1677800721,389888048,imu1_frame,"$VNYMR,+101.955,-022.326,+089.543,-00.0202,+00.4472,+00.1285,-06.934,-11.332,-09.615,+01.977598,+01.891301,-05.741183*6B",0,0,0,,0.5418218104634226,0.45026663656425403,0.6269510757400372,0.3325980010939079,"(0.0, 0.0, 0.0, 0.0, 0.0, 0.0, 0.0, 0.0, 0.0)",1.977598,1.891301,-5.741183,"(0.0, 0.0, 0.0, 0.0, 0.0, 0.0, 0.0, 0.0, 0.0)",-6.934,-11.332,-9.615,"(0.0, 0.0, 0.0, 0.0, 0.0, 0.0, 0.0, 0.0, 0.0)",0,0,0,,-0.0202,0.4472,0.1285,"(0.0, 0.0, 0.0, 0.0, 0.0, 0.0, 0.0, 0.0, 0.0)"
1677800721.4300117,600,1677800721,415245532,imu1_frame,"$VNYMR,+102.975,-014.368,+093.114,-00.0902,+00.4510,+00.1124,-05.333,-17.860,-13.626,+02.387246,+00.034637,-05.473830*66",0,0,0,,0.5158439197093174,0.5101145886903319,0.590368255675041,0.3537703769331603,"(0.0, 0.0, 0.0, 0.0, 0.0, 0.0, 0.0, 0.0, 0.0)",2.387246,0.034637,-5.47383,"(0.0, 0.0, 0.0, 0.0, 0.0, 0.0, 0.0, 0.0, 0.0)",-5.333,-17.86,-13.626,"(0.0, 0.0, 0.0, 0.0, 0.0, 0.0, 0.0, 0.0, 0.0)",0,0,0,,-0.0902,0.451,0.1124,"(0.0, 0.0, 0.0, 0.0, 0.0, 0.0, 0.0, 0.0, 0.0)"
1677800721.4748504,601,1677800721,440765142,imu1_frame,"$VNYMR,+103.967,-006.625,+093.263,-00.1478,+00.4304,+00.0952,-04.689,-16.094,+00.556,-01.203609,-00.135906,-05.310275*60",0,0,0,,0.4782331642936888,0.5473231758107537,0.5659620089479118,0.38912387001791643,"(0.0, 0.0, 0.0, 0.0, 0.0, 0.0, 0.0, 0.0, 0.0)",-1.203609,-0.135906,-5.310275,"(0.0, 0.0, 0.0, 0.0, 0.0, 0.0, 0.0, 0.0, 0.0)",-4.689,-16.094,0.556,"(0.0, 0.0, 0.0, 0.0, 0.0, 0.0, 0.0, 0.0, 0.0)",0,0,0,,-0.1478,0.4304,0.0952,"(0.0, 0.0, 0.0, 0.0, 0.0, 0.0, 0.0, 0.0, 0.0)"
1677800721.4748738,602,1677800721,466159105,imu1_frame,"$VNYMR,+102.995,+001.311,+090.048,-00.2038,+00.3936,+00.1271,-02.655,-14.379,+02.050,-02.787894,-01.392896,-05.534875*6B",0,0,0,,0.4340359077066257,0.5585978877018908,0.5480620226618886,0.44632863451948795,"(0.0, 0.0, 0.0, 0.0, 0.0, 0.0, 0.0, 0.0, 0.0)",-2.787894,-1.392896,-5.534875,"(0.0, 0.0, 0.0, 0.0, 0.0, 0.0, 0.0, 0.0, 0.0)",-2.655,-14.379,2.05,"(0.0, 0.0, 0.0, 0.0, 0.0, 0.0, 0.0, 0.0, 0.0)",0,0,0,,-0.2038,0.3936,0.1271,"(0.0, 0.0, 0.0, 0.0, 0.0, 0.0, 0.0, 0.0, 0.0)"
1677800721.5172234,603,1677800721,489576101,imu1_frame,"$VNYMR,+100.348,+008.987,+087.778,-00.2377,+00.3678,+00.1285,-03.940,-19.588,-00.408,-01.327425,-00.880230,-06.405003*64",0,0,0,,0.39927857840924313,0.5669469570727997,0.5169930258218327,0.5018625070086155,"(0.0, 0.0, 0.0, 0.0, 0.0, 0.0, 0.0, 0.0, 0.0)",-1.327425,-0.88023,-6.405003,"(0.0, 0.0, 0.0, 0.0, 0.0, 0.0, 0.0, 0.0, 0.0)",-3.94,-19.588,-0.408,"(0.0, 0.0, 0.0, 0.0, 0.0, 0.0, 0.0, 0.0, 0.0)",0,0,0,,-0.2377,0.3678,0.1285,"(0.0, 0.0, 0.0, 0.0, 0.0, 0.0, 0.0, 0.0, 0.0)"
