Time,header.seq,header.stamp.secs,header.stamp.nsecs,header.frame_id,raw,imu.header.seq,imu.header.stamp.secs,imu.header.stamp.nsecs,imu.header.frame_id,imu.orientation.x,imu.orientation.y,imu.orientation.z,imu.orientation.w,imu.orientation_covariance,imu.angular_velocity.x,imu.angular_velocity.y,imu.angular_velocity.z,imu.angular_velocity_covariance,imu.linear_acceleration.x,imu.linear_acceleration.y,imu.linear_acceleration.z,imu.linear_acceleration_covariance,mag_field.header.seq,mag_field.header.stamp.secs,mag_field.header.stamp.nsecs,mag_field.header.frame_id,mag_field.magnetic_field.x,mag_field.magnetic_field.y,mag_field.magnetic_field.z,mag_field.magnetic_field_covariance
1677800806.8545442,4016,1677800806,815315961,imu1_frame,"$VNYMR,+141.504,+020.285,-012.401,-00.3281,-00.0038,+00.3156,+00.529,+06.393,-08.632,-00.011930,-05.633592,+05.568705*67",0,0,0,,-0.20032990564336228,-0.04266481808638308,0.9301802988700442,0.3046510360996869,"(0.0, 0.0, 0.0, 0.0, 0.0, 0.0, 0.0, 0.0, 0.0)",-0.01193,-5.633592,5.568705,"(0.0, 0.0, 0.0, 0.0, 0.0, 0.0, 0.0, 0.0, 0.0)",0.529,6.393,-8.632,"(0.0, 0.0, 0.0, 0.0, 0.0, 0.0, 0.0, 0.0, 0.0)",0,0,0,,-0.3281,-0.0038,0.3156,"(0.0, 0.0, 0.0, 0.0, 0.0, 0.0, 0.0, 0.0, 0.0)"
1677800806.854571,4017,1677800806,838805437,imu1_frame,"$VNYMR,+152.434,+015.999,-014.373,-00.2735,+00.0003,+00.3690,-09.230,+03.778,-21.685,-05.468339,-00.441532,+06.921969*6A",0,0,0,,-0.1636097961149317,-0.08742015760837413,0.9583468519752527,0.21716551744713186,"(0.0, 0.0, 0.0, 0.0, 0.0, 0.0, 0.0, 0.0, 0.0)",-5.468339,-0.441532,6.921969,"(0.0, 0.0, 0.0, 0.0, 0.0, 0.0, 0.0, 0.0, 0.0)",-9.23,3.778,-21.685,"(0.0, 0.0, 0.0, 0.0, 0.0, 0.0, 0.0, 0.0, 0.0)",0,0,0,,-0.2735,0.0003,0.369,"(0.0, 0.0, 0.0, 0.0, 0.0, 0.0, 0.0, 0.0, 0.0)"
1677800806.8974624,4018,1677800806,864208698,imu1_frame,"$VNYMR,+155.898,+021.865,-008.586,-00.3002,+00.0462,+00.3422,+19.941,-07.210,-09.045,+14.673281,+04.804976,-02.791551*65",0,0,0,,-0.20029764619840598,-0.032393629047803206,0.9604833541865941,0.19053407058833624,"(0.0, 0.0, 0.0, 0.0, 0.0, 0.0, 0.0, 0.0, 0.0)",14.673281,4.804976,-2.791551,"(0.0, 0.0, 0.0, 0.0, 0.0, 0.0, 0.0, 0.0, 0.0)",19.941,-7.21,-9.045,"(0.0, 0.0, 0.0, 0.0, 0.0, 0.0, 0.0, 0.0, 0.0)",0,0,0,,-0.3002,0.0462,0.3422,"(0.0, 0.0, 0.0, 0.0, 0.0, 0.0, 0.0, 0.0, 0.0)"
1677800806.8974888,4019,1677800806,889646530,imu1_frame,"$VNYMR,+150.095,+026.669,+010.154,-00.3422,+00.1390,+00.2652,-04.034,+38.833,-09.523,+12.178655,+02.533534,+03.712275*67",0,0,0,,-0.19973455418838854,0.142467752079289,0.9311386547154445,0.26979594729230494,"(0.0, 0.0, 0.0, 0.0, 0.0, 0.0, 0.0, 0.0, 0.0)",12.178655,2.533534,3.712275,"(0.0, 0.0, 0.0, 0.0, 0.0, 0.0, 0.0, 0.0, 0.0)",-4.034,38.833,-9.523,"(0.0, 0.0, 0.0, 0.0, 0.0, 0.0, 0.0, 0.0, 0.0)",0,0,0,,-0.3422,0.139,0.2652,"(0.0, 0.0, 0.0, 0.0, 0.0, 0.0, 0.0, 0.0, 0.0)"
1677800806.9409685,4020,1677800806,915003538,imu1_frame,"$VNYMR,+162.277,+026.773,+027.897,-00.3210,+00.2666,+00.1966,+02.156,-13.107,-09.072,+02.132536,+03.183509,+05.664636*6A",0,0,0,,-0.1858858686450872,0.2663143436591848,0.9242777601002719,0.20058348980776944,"(0.0, 0.0, 0.0, 0.0, 0.0, 0.0, 0.0, 0.0, 0.0)",2.132536,3.183509,5.664636,"(0.0, 0.0, 0.0, 0.0, 0.0, 0.0, 0.0, 0.0, 0.0)",2.156,-13.107,-9.072,"(0.0, 0.0, 0.0, 0.0, 0.0, 0.0, 0.0, 0.0, 0.0)",0,0,0,,-0.321,0.2666,0.1966,"(0.0, 0.0, 0.0, 0.0, 0.0, 0.0, 0.0, 0.0, 0.0)"
1677800806.942621,4021,1677800806,940373659,imu1_frame,"$VNYMR,+169.380,+028.670,+034.009,-00.3120,+00.3097,+00.1430,+00.858,-17.492,+05.550,+02.303257,+01.274358,+01.783406*6F",0,0,0,,-0.2095289532667077,0.3040368642208803,0.9158307117760885,0.1578395080624449,"(0.0, 0.0, 0.0, 0.0, 0.0, 0.0, 0.0, 0.0, 0.0)",2.303257,1.274358,1.783406,"(0.0, 0.0, 0.0, 0.0, 0.0, 0.0, 0.0, 0.0, 0.0)",0.858,-17.492,5.55,"(0.0, 0.0, 0.0, 0.0, 0.0, 0.0, 0.0, 0.0, 0.0)",0,0,0,,-0.312,0.3097,0.143,"(0.0, 0.0, 0.0, 0.0, 0.0, 0.0, 0.0, 0.0, 0.0)"
1677800806.9862714,4022,1677800806,965742111,imu1_frame,"$VNYMR,+171.354,+027.447,+035.393,-00.2985,+00.3062,+00.1543,+02.708,-12.957,-08.138,-00.515332,+00.143633,+01.529811*67",0,0,0,,-0.20310838046104132,0.31149328272232196,0.9174139246316121,0.1416707856171741,"(0.0, 0.0, 0.0, 0.0, 0.0, 0.0, 0.0, 0.0, 0.0)",-0.515332,0.143633,1.529811,"(0.0, 0.0, 0.0, 0.0, 0.0, 0.0, 0.0, 0.0, 0.0)",2.708,-12.957,-8.138,"(0.0, 0.0, 0.0, 0.0, 0.0, 0.0, 0.0, 0.0, 0.0)",0,0,0,,-0.2985,0.3062,0.1543,"(0.0, 0.0, 0.0, 0.0, 0.0, 0.0, 0.0, 0.0, 0.0)"
1677800807.0293016,4023,1677800806,989253044,imu1_frame,"$VNYMR,+173.620,+026.363,+034.625,-00.2849,+00.3167,+00.1475,-00.432,-07.686,-10.284,-01.641669,-00.162299,+01.293329*60",0,0,0,,-0.20124480030385078,0.3014083690683113,0.9243255836352732,0.119481131747048,"(0.0, 0.0, 0.0, 0.0, 0.0, 0.0, 0.0, 0.0, 0.0)",-1.641669,-0.162299,1.293329,"(0.0, 0.0, 0.0, 0.0, 0.0, 0.0, 0.0, 0.0, 0.0)",-0.432,-7.686,-10.284,"(0.0, 0.0, 0.0, 0.0, 0.0, 0.0, 0.0, 0.0, 0.0)",0,0,0,,-0.2849,0.3167,0.1475,"(0.0, 0.0, 0.0, 0.0, 0.0, 0.0, 0.0, 0.0, 0.0)"
1677800807.0293264,4024,1677800807,14702081,imu1_frame,"$VNYMR,+173.926,+024.780,+032.315,-00.2738,+00.3073,+00.1742,+01.461,-04.519,-13.281,-01.686858,-01.303587,+00.528199*6D",0,0,0,,-0.19140012283945243,0.28233460241663394,0.9336490659813169,0.10932788687017814,"(0.0, 0.0, 0.0, 0.0, 0.0, 0.0, 0.0, 0.0, 0.0)",-1.686858,-1.303587,0.528199,"(0.0, 0.0, 0.0, 0.0, 0.0, 0.0, 0.0, 0.0, 0.0)",1.461,-4.519,-13.281,"(0.0, 0.0, 0.0, 0.0, 0.0, 0.0, 0.0, 0.0, 0.0)",0,0,0,,-0.2738,0.3073,0.1742,"(0.0, 0.0, 0.0, 0.0, 0.0, 0.0, 0.0, 0.0, 0.0)"
1677800807.0733056,4025,1677800807,39988994,imu1_frame,"$VNYMR,+173.149,+022.551,+030.228,-00.2651,+00.3086,+00.2057,+03.007,-02.631,-14.049,-00.782783,-01.482898,+00.197695*6E",0,0,0,,-0.17314737599790048,0.2665295582391681,0.9420372072776122,0.10746106678454614,"(0.0, 0.0, 0.0, 0.0, 0.0, 0.0, 0.0, 0.0, 0.0)",-0.782783,-1.482898,0.197695,"(0.0, 0.0, 0.0, 0.0, 0.0, 0.0, 0.0, 0.0, 0.0)",3.007,-2.631,-14.049,"(0.0, 0.0, 0.0, 0.0, 0.0, 0.0, 0.0, 0.0, 0.0)",0,0,0,,-0.2651,0.3086,0.2057,"(0.0, 0.0, 0.0, 0.0, 0.0, 0.0, 0.0, 0.0, 0.0)"
1677800807.0733335,4026,1677800807,65420389,imu1_frame,"$VNYMR,+172.169,+019.975,+028.304,-00.2470,+00.3002,+00.2097,+04.154,-04.196,-11.633,-01.406221,-02.407779,+00.581745*68",0,0,0,,-0.15133478771636,0.25171142399171753,0.9498315034196859,0.10751398127874129,"(0.0, 0.0, 0.0, 0.0, 0.0, 0.0, 0.0, 0.0, 0.0)",-1.406221,-2.407779,0.581745,"(0.0, 0.0, 0.0, 0.0, 0.0, 0.0, 0.0, 0.0, 0.0)",4.154,-4.196,-11.633,"(0.0, 0.0, 0.0, 0.0, 0.0, 0.0, 0.0, 0.0, 0.0)",0,0,0,,-0.247,0.3002,0.2097,"(0.0, 0.0, 0.0, 0.0, 0.0, 0.0, 0.0, 0.0, 0.0)"
1677800807.1165366,4027,1677800807,89002132,imu1_frame,"$VNYMR,+171.490,+016.671,+025.754,-00.2270,+00.2873,+00.2409,+03.534,-03.352,-12.662,-01.395025,-02.017451,+00.645071*69",0,0,0,,-0.12457342724202045,0.23038234782174477,0.9594968965249746,0.1037841057014989,"(0.0, 0.0, 0.0, 0.0, 0.0, 0.0, 0.0, 0.0, 0.0)",-1.395025,-2.017451,0.645071,"(0.0, 0.0, 0.0, 0.0, 0.0, 0.0, 0.0, 0.0, 0.0)",3.534,-3.352,-12.662,"(0.0, 0.0, 0.0, 0.0, 0.0, 0.0, 0.0, 0.0, 0.0)",0,0,0,,-0.227,0.2873,0.2409,"(0.0, 0.0, 0.0, 0.0, 0.0, 0.0, 0.0, 0.0, 0.0)"
1677800807.116726,4028,1677800807,114293098,imu1_frame,"$VNYMR,+170.728,+019.129,+025.955,-00.2450,+00.2897,+00.2292,+01.261,-00.441,+03.940,+01.777755,+01.150139,-03.067498*60",0,0,0,,-0.14348564069261766,0.2338089277876738,0.954752833555693,0.11485766417258564,"(0.0, 0.0, 0.0, 0.0, 0.0, 0.0, 0.0, 0.0, 0.0)",1.777755,1.150139,-3.067498,"(0.0, 0.0, 0.0, 0.0, 0.0, 0.0, 0.0, 0.0, 0.0)",1.261,-0.441,3.94,"(0.0, 0.0, 0.0, 0.0, 0.0, 0.0, 0.0, 0.0, 0.0)",0,0,0,,-0.245,0.2897,0.2292,"(0.0, 0.0, 0.0, 0.0, 0.0, 0.0, 0.0, 0.0, 0.0)"
1677800807.163156,4029,1677800807,139764070,imu1_frame,"$VNYMR,+167.030,+018.521,+024.045,-00.2485,+00.2697,+00.2446,+02.812,-05.241,-07.198,-02.068822,-02.477936,-01.693476*6A",0,0,0,,-0.13316767500223758,0.22204216620495937,0.9553561931880419,0.1423312716825094,"(0.0, 0.0, 0.0, 0.0, 0.0, 0.0, 0.0, 0.0, 0.0)",-2.068822,-2.477936,-1.693476,"(0.0, 0.0, 0.0, 0.0, 0.0, 0.0, 0.0, 0.0, 0.0)",2.812,-5.241,-7.198,"(0.0, 0.0, 0.0, 0.0, 0.0, 0.0, 0.0, 0.0, 0.0)",0,0,0,,-0.2485,0.2697,0.2446,"(0.0, 0.0, 0.0, 0.0, 0.0, 0.0, 0.0, 0.0, 0.0)"
1677800807.2062242,4030,1677800807,165099620,imu1_frame,"$VNYMR,+160.967,+014.490,+019.479,-00.2366,+00.2391,+00.2908,-01.830,-01.076,-09.649,-01.637175,-04.598220,-03.353987*6E",0,0,0,,-0.09483854854883325,0.1860585813196515,0.9607355490126326,0.18268842024021287,"(0.0, 0.0, 0.0, 0.0, 0.0, 0.0, 0.0, 0.0, 0.0)",-1.637175,-4.59822,-3.353987,"(0.0, 0.0, 0.0, 0.0, 0.0, 0.0, 0.0, 0.0, 0.0)",-1.83,-1.076,-9.649,"(0.0, 0.0, 0.0, 0.0, 0.0, 0.0, 0.0, 0.0, 0.0)",0,0,0,,-0.2366,0.2391,0.2908,"(0.0, 0.0, 0.0, 0.0, 0.0, 0.0, 0.0, 0.0, 0.0)"
1677800807.2062461,4031,1677800807,190494537,imu1_frame,"$VNYMR,+154.975,+010.855,+014.845,-00.2243,+00.2051,+00.3122,-22.203,+04.584,-13.946,-01.563255,-01.347909,-00.963730*6C",0,0,0,,-0.06370305178610698,0.14587190749339593,0.9610808342330107,0.22580287391296644,"(0.0, 0.0, 0.0, 0.0, 0.0, 0.0, 0.0, 0.0, 0.0)",-1.563255,-1.347909,-0.96373,"(0.0, 0.0, 0.0, 0.0, 0.0, 0.0, 0.0, 0.0, 0.0)",-22.203,4.584,-13.946,"(0.0, 0.0, 0.0, 0.0, 0.0, 0.0, 0.0, 0.0, 0.0)",0,0,0,,-0.2243,0.2051,0.3122,"(0.0, 0.0, 0.0, 0.0, 0.0, 0.0, 0.0, 0.0, 0.0)"
1677800807.2498343,4032,1677800807,213983058,imu1_frame,"$VNYMR,+163.250,+009.262,+016.400,-00.1948,+00.2322,+00.3206,+02.529,-10.407,-26.562,-00.996876,+03.634705,+04.705518*6D",0,0,0,,-0.05835430318403895,0.15228667082088063,0.9743471494904328,0.15508442046210275,"(0.0, 0.0, 0.0, 0.0, 0.0, 0.0, 0.0, 0.0, 0.0)",-0.996876,3.634705,4.705518,"(0.0, 0.0, 0.0, 0.0, 0.0, 0.0, 0.0, 0.0, 0.0)",2.529,-10.407,-26.562,"(0.0, 0.0, 0.0, 0.0, 0.0, 0.0, 0.0, 0.0, 0.0)",0,0,0,,-0.1948,0.2322,0.3206,"(0.0, 0.0, 0.0, 0.0, 0.0, 0.0, 0.0, 0.0, 0.0)"
1677800807.2498603,4033,1677800807,239378452,imu1_frame,"$VNYMR,+178.039,+019.245,+008.383,-00.2279,+00.1904,+00.3336,-03.636,-09.753,-02.684,-02.098960,+06.072420,+07.113730*69",0,0,0,,-0.16545130515924844,0.07490408642326501,0.9829403902603608,0.02904191200673507,"(0.0, 0.0, 0.0, 0.0, 0.0, 0.0, 0.0, 0.0, 0.0)",-2.09896,6.07242,7.11373,"(0.0, 0.0, 0.0, 0.0, 0.0, 0.0, 0.0, 0.0, 0.0)",-3.636,-9.753,-2.684,"(0.0, 0.0, 0.0, 0.0, 0.0, 0.0, 0.0, 0.0, 0.0)",0,0,0,,-0.2279,0.1904,0.3336,"(0.0, 0.0, 0.0, 0.0, 0.0, 0.0, 0.0, 0.0, 0.0)"
1677800807.292605,4034,1677800807,264901638,imu1_frame,"$VNYMR,-173.732,+023.522,+007.951,-00.2357,+00.1951,+00.3135,+01.260,-12.129,+04.874,+00.220630,+00.329548,+03.720090*66",0,0,0,,0.20674592527497315,-0.056656072569205865,-0.975962573034621,0.0392844480535304,"(0.0, 0.0, 0.0, 0.0, 0.0, 0.0, 0.0, 0.0, 0.0)",0.22063,0.329548,3.72009,"(0.0, 0.0, 0.0, 0.0, 0.0, 0.0, 0.0, 0.0, 0.0)",1.26,-12.129,4.874,"(0.0, 0.0, 0.0, 0.0, 0.0, 0.0, 0.0, 0.0, 0.0)",0,0,0,,-0.2357,0.1951,0.3135,"(0.0, 0.0, 0.0, 0.0, 0.0, 0.0, 0.0, 0.0, 0.0)"
1677800807.2926228,4035,1677800807,290182113,imu1_frame,"$VNYMR,-171.565,+018.032,+008.054,-00.1984,+00.2069,+00.3395,+02.165,-14.503,-01.329,-00.716734,-05.768097,+01.116748*6F",0,0,0,,0.16100089912273655,-0.057674602361912894,-0.9833476665606881,0.061479406257016506,"(0.0, 0.0, 0.0, 0.0, 0.0, 0.0, 0.0, 0.0, 0.0)",-0.716734,-5.768097,1.116748,"(0.0, 0.0, 0.0, 0.0, 0.0, 0.0, 0.0, 0.0, 0.0)",2.165,-14.503,-1.329,"(0.0, 0.0, 0.0, 0.0, 0.0, 0.0, 0.0, 0.0, 0.0)",0,0,0,,-0.1984,0.2069,0.3395,"(0.0, 0.0, 0.0, 0.0, 0.0, 0.0, 0.0, 0.0, 0.0)"
1677800807.340908,4036,1677800807,315556764,imu1_frame,"$VNYMR,-173.769,+028.109,-010.415,-00.2684,+00.0511,+00.3617,-09.891,-08.405,-61.432,+02.653090,+19.243614,+00.670292*61",0,0,0,,0.23669975318615577,0.10105971401607665,-0.9634354956548111,0.07451313143983422,"(0.0, 0.0, 0.0, 0.0, 0.0, 0.0, 0.0, 0.0, 0.0)",2.65309,19.243614,0.670292,"(0.0, 0.0, 0.0, 0.0, 0.0, 0.0, 0.0, 0.0, 0.0)",-9.891,-8.405,-61.432,"(0.0, 0.0, 0.0, 0.0, 0.0, 0.0, 0.0, 0.0, 0.0)",0,0,0,,-0.2684,0.0511,0.3617,"(0.0, 0.0, 0.0, 0.0, 0.0, 0.0, 0.0, 0.0, 0.0)"
1677800807.3417912,4037,1677800807,339122056,imu1_frame,"$VNYMR,+179.331,+051.620,+008.301,-00.4344,+00.1527,+00.1625,+13.592,+16.700,+71.086,+00.104619,+00.579923,-00.340033*67",0,0,0,,-0.43385857950450885,0.06769052993180823,0.8976825282948258,0.036753279337904704,"(0.0, 0.0, 0.0, 0.0, 0.0, 0.0, 0.0, 0.0, 0.0)",0.104619,0.579923,-0.340033,"(0.0, 0.0, 0.0, 0.0, 0.0, 0.0, 0.0, 0.0, 0.0)",13.592,16.7,71.086,"(0.0, 0.0, 0.0, 0.0, 0.0, 0.0, 0.0, 0.0, 0.0)",0,0,0,,-0.4344,0.1527,0.1625,"(0.0, 0.0, 0.0, 0.0, 0.0, 0.0, 0.0, 0.0, 0.0)"
1677800807.3850863,4038,1677800807,364464521,imu1_frame,"$VNYMR,-179.364,+052.745,+013.312,-00.4319,+00.1705,+00.1364,+12.405,-00.939,+13.573,+04.964895,-00.471503,+00.504463*62",0,0,0,,0.4417808091979413,-0.10139451065831502,-0.8901585424590043,-0.046547170913324276,"(0.0, 0.0, 0.0, 0.0, 0.0, 0.0, 0.0, 0.0, 0.0)",4.964895,-0.471503,0.504463,"(0.0, 0.0, 0.0, 0.0, 0.0, 0.0, 0.0, 0.0, 0.0)",12.405,-0.939,13.573,"(0.0, 0.0, 0.0, 0.0, 0.0, 0.0, 0.0, 0.0, 0.0)",0,0,0,,-0.4319,0.1705,0.1364,"(0.0, 0.0, 0.0, 0.0, 0.0, 0.0, 0.0, 0.0, 0.0)"
1677800807.4290102,4039,1677800807,389872312,imu1_frame,"$VNYMR,-178.032,+054.474,+020.804,-00.4272,+00.2040,+00.1378,+11.805,-02.746,-00.595,+05.371522,-00.905917,+01.034400*60",0,0,0,,0.4528409227045552,-0.15277969509615535,-0.8757985844969045,-0.06760401529222478,"(0.0, 0.0, 0.0, 0.0, 0.0, 0.0, 0.0, 0.0, 0.0)",5.371522,-0.905917,1.0344,"(0.0, 0.0, 0.0, 0.0, 0.0, 0.0, 0.0, 0.0, 0.0)",11.805,-2.746,-0.595,"(0.0, 0.0, 0.0, 0.0, 0.0, 0.0, 0.0, 0.0, 0.0)",0,0,0,,-0.4272,0.204,0.1378,"(0.0, 0.0, 0.0, 0.0, 0.0, 0.0, 0.0, 0.0, 0.0)"
1677800807.4290318,4040,1677800807,415259361,imu1_frame,"$VNYMR,-175.893,+056.918,+029.947,-00.4211,+00.2313,+00.1002,+12.703,-03.474,-03.689,+05.699747,+00.800629,+00.521562*69",0,0,0,,0.46819316598951555,-0.21050870991249052,-0.853173262360404,-0.09261007917607061,"(0.0, 0.0, 0.0, 0.0, 0.0, 0.0, 0.0, 0.0, 0.0)",5.699747,0.800629,0.521562,"(0.0, 0.0, 0.0, 0.0, 0.0, 0.0, 0.0, 0.0, 0.0)",12.703,-3.474,-3.689,"(0.0, 0.0, 0.0, 0.0, 0.0, 0.0, 0.0, 0.0, 0.0)",0,0,0,,-0.4211,0.2313,0.1002,"(0.0, 0.0, 0.0, 0.0, 0.0, 0.0, 0.0, 0.0, 0.0)"
1677800807.4739177,4041,1677800807,440647125,imu1_frame,"$VNYMR,-175.978,+058.660,+037.086,-00.4180,+00.2458,+00.0655,+14.028,-00.422,-02.213,+04.725167,-00.625862,+00.468821*6B",0,0,0,,0.4738522114397546,-0.26078318894297436,-0.8315103192977137,-0.12667596054422123,"(0.0, 0.0, 0.0, 0.0, 0.0, 0.0, 0.0, 0.0, 0.0)",4.725167,-0.625862,0.468821,"(0.0, 0.0, 0.0, 0.0, 0.0, 0.0, 0.0, 0.0, 0.0)",14.028,-0.422,-2.213,"(0.0, 0.0, 0.0, 0.0, 0.0, 0.0, 0.0, 0.0, 0.0)",0,0,0,,-0.418,0.2458,0.0655,"(0.0, 0.0, 0.0, 0.0, 0.0, 0.0, 0.0, 0.0, 0.0)"
1677800807.4739451,4042,1677800807,464225769,imu1_frame,"$VNYMR,-175.746,+060.198,+042.837,-00.4202,+00.2649,+00.0547,+10.504,+00.506,-02.145,+03.450453,-00.254309,-00.036007*63",0,0,0,,0.47826554341888633,-0.2983918744705952,-0.8116525080581131,-0.1531161826559722,"(0.0, 0.0, 0.0, 0.0, 0.0, 0.0, 0.0, 0.0, 0.0)",3.450453,-0.254309,-0.036007,"(0.0, 0.0, 0.0, 0.0, 0.0, 0.0, 0.0, 0.0, 0.0)",10.504,0.506,-2.145,"(0.0, 0.0, 0.0, 0.0, 0.0, 0.0, 0.0, 0.0, 0.0)",0,0,0,,-0.4202,0.2649,0.0547,"(0.0, 0.0, 0.0, 0.0, 0.0, 0.0, 0.0, 0.0, 0.0)"
1677800807.516557,4043,1677800807,489572525,imu1_frame,"$VNYMR,-176.611,+062.164,+045.086,-00.4234,+00.2672,+00.0283,+09.685,+02.132,-02.232,+01.502464,+00.052654,-00.520834*60",0,0,0,,0.4863180660039715,-0.3140918185703967,-0.7964980900834792,-0.17444730057718788,"(0.0, 0.0, 0.0, 0.0, 0.0, 0.0, 0.0, 0.0, 0.0)",1.502464,0.052654,-0.520834,"(0.0, 0.0, 0.0, 0.0, 0.0, 0.0, 0.0, 0.0, 0.0)",9.685,2.132,-2.232,"(0.0, 0.0, 0.0, 0.0, 0.0, 0.0, 0.0, 0.0, 0.0)",0,0,0,,-0.4234,0.2672,0.0283,"(0.0, 0.0, 0.0, 0.0, 0.0, 0.0, 0.0, 0.0, 0.0)"
1677800807.5173306,4044,1677800807,514931678,imu1_frame,"$VNYMR,-178.504,+064.422,+045.284,-00.4315,+00.2505,+00.0305,+10.400,+02.070,-02.475,+01.772118,-00.022364,-00.854125*68",0,0,0,,0.49616677296742534,-0.31927116043165565,-0.7834935009263584,-0.19499331661847727,"(0.0, 0.0, 0.0, 0.0, 0.0, 0.0, 0.0, 0.0, 0.0)",1.772118,-0.022364,-0.854125,"(0.0, 0.0, 0.0, 0.0, 0.0, 0.0, 0.0, 0.0, 0.0)",10.4,2.07,-2.475,"(0.0, 0.0, 0.0, 0.0, 0.0, 0.0, 0.0, 0.0, 0.0)",0,0,0,,-0.4315,0.2505,0.0305,"(0.0, 0.0, 0.0, 0.0, 0.0, 0.0, 0.0, 0.0, 0.0)"
1677800807.561957,4045,1677800807,540324687,imu1_frame,"$VNYMR,+178.212,+066.860,+045.242,-00.4395,+00.2483,+00.0067,+10.177,+00.810,-02.557,+02.448542,-00.118771,-01.558563*68",0,0,0,,-0.5034649644715596,0.3288950945175029,0.76695628175597,0.22389530639794816,"(0.0, 0.0, 0.0, 0.0, 0.0, 0.0, 0.0, 0.0, 0.0)",2.448542,-0.118771,-1.558563,"(0.0, 0.0, 0.0, 0.0, 0.0, 0.0, 0.0, 0.0, 0.0)",10.177,0.81,-2.557,"(0.0, 0.0, 0.0, 0.0, 0.0, 0.0, 0.0, 0.0, 0.0)",0,0,0,,-0.4395,0.2483,0.0067,"(0.0, 0.0, 0.0, 0.0, 0.0, 0.0, 0.0, 0.0, 0.0)"
1677800807.6049745,4046,1677800807,565757274,imu1_frame,"$VNYMR,+173.251,+070.943,+043.963,-00.4578,+00.2267,-00.0115,+07.868,+01.965,-02.014,+01.621902,+01.118780,-03.057622*66",0,0,0,,-0.5192366438449127,0.33598329004530897,0.7411061156953195,0.26128578564092775,"(0.0, 0.0, 0.0, 0.0, 0.0, 0.0, 0.0, 0.0, 0.0)",1.621902,1.11878,-3.057622,"(0.0, 0.0, 0.0, 0.0, 0.0, 0.0, 0.0, 0.0, 0.0)",7.868,1.965,-2.014,"(0.0, 0.0, 0.0, 0.0, 0.0, 0.0, 0.0, 0.0, 0.0)",0,0,0,,-0.4578,0.2267,-0.0115,"(0.0, 0.0, 0.0, 0.0, 0.0, 0.0, 0.0, 0.0, 0.0)"
1677800807.6050014,4047,1677800807,589244127,imu1_frame,"$VNYMR,+164.489,+075.675,+035.890,-00.4809,+00.1920,-00.0103,+08.490,+05.365,-04.104,-00.207182,+01.157172,-02.963058*68",0,0,0,,-0.5454086914695567,0.3198526517745871,0.7189572473145086,0.2886591709199191,"(0.0, 0.0, 0.0, 0.0, 0.0, 0.0, 0.0, 0.0, 0.0)",-0.207182,1.157172,-2.963058,"(0.0, 0.0, 0.0, 0.0, 0.0, 0.0, 0.0, 0.0, 0.0)",8.49,5.365,-4.104,"(0.0, 0.0, 0.0, 0.0, 0.0, 0.0, 0.0, 0.0, 0.0)",0,0,0,,-0.4809,0.192,-0.0103,"(0.0, 0.0, 0.0, 0.0, 0.0, 0.0, 0.0, 0.0, 0.0)"
1677800807.651755,4048,1677800807,614647388,imu1_frame,"$VNYMR,+149.208,+080.249,+018.874,-00.4934,+00.1668,-00.0280,+08.407,+08.269,-02.579,-01.695457,+01.660300,-02.884243*69",0,0,0,,-0.5796298622181664,0.2896534197985582,0.6991756244626403,0.302131702046023,"(0.0, 0.0, 0.0, 0.0, 0.0, 0.0, 0.0, 0.0, 0.0)",-1.695457,1.6603,-2.884243,"(0.0, 0.0, 0.0, 0.0, 0.0, 0.0, 0.0, 0.0, 0.0)",8.407,8.269,-2.579,"(0.0, 0.0, 0.0, 0.0, 0.0, 0.0, 0.0, 0.0, 0.0)",0,0,0,,-0.4934,0.1668,-0.028,"(0.0, 0.0, 0.0, 0.0, 0.0, 0.0, 0.0, 0.0, 0.0)"
1677800807.6517823,4049,1677800807,639953851,imu1_frame,"$VNYMR,+112.263,+083.611,-022.558,-00.5107,+00.1153,-00.0441,+07.791,+07.953,-01.884,-04.010273,+02.124726,-03.136929*6F",0,0,0,,-0.6240525189060727,0.24326166089706808,0.6796345377620687,0.29913059533508923,"(0.0, 0.0, 0.0, 0.0, 0.0, 0.0, 0.0, 0.0, 0.0)",-4.010273,2.124726,-3.136929,"(0.0, 0.0, 0.0, 0.0, 0.0, 0.0, 0.0, 0.0, 0.0)",7.791,7.953,-1.884,"(0.0, 0.0, 0.0, 0.0, 0.0, 0.0, 0.0, 0.0, 0.0)",0,0,0,,-0.5107,0.1153,-0.0441,"(0.0, 0.0, 0.0, 0.0, 0.0, 0.0, 0.0, 0.0, 0.0)"
1677800807.6927917,4050,1677800807,665363311,imu1_frame,"$VNYMR,+060.123,+081.248,-082.425,-00.5210,+00.0756,-00.0536,+08.374,+06.018,-00.001,-07.138589,+02.893391,-04.404826*68",0,0,0,,-0.6781579288178586,0.1734151153432894,0.6572893240020313,0.27928438177760406,"(0.0, 0.0, 0.0, 0.0, 0.0, 0.0, 0.0, 0.0, 0.0)",-7.138589,2.893391,-4.404826,"(0.0, 0.0, 0.0, 0.0, 0.0, 0.0, 0.0, 0.0, 0.0)",8.374,6.018,-0.001,"(0.0, 0.0, 0.0, 0.0, 0.0, 0.0, 0.0, 0.0, 0.0)",0,0,0,,-0.521,0.0756,-0.0536,"(0.0, 0.0, 0.0, 0.0, 0.0, 0.0, 0.0, 0.0, 0.0)"
1677800807.6928105,4051,1677800807,689023733,imu1_frame,"$VNYMR,+046.694,+075.563,-100.344,-00.5324,+00.0291,-00.0557,+10.643,+11.210,+00.170,+00.566066,+01.243176,-02.450717*6C",0,0,0,,-0.7127756499502309,0.11972518292330503,0.6325850692979299,0.27830358156757506,"(0.0, 0.0, 0.0, 0.0, 0.0, 0.0, 0.0, 0.0, 0.0)",0.566066,1.243176,-2.450717,"(0.0, 0.0, 0.0, 0.0, 0.0, 0.0, 0.0, 0.0, 0.0)",10.643,11.21,0.17,"(0.0, 0.0, 0.0, 0.0, 0.0, 0.0, 0.0, 0.0, 0.0)",0,0,0,,-0.5324,0.0291,-0.0557,"(0.0, 0.0, 0.0, 0.0, 0.0, 0.0, 0.0, 0.0, 0.0)"
1677800807.7377505,4052,1677800807,714247226,imu1_frame,"$VNYMR,+041.412,+071.979,-105.803,-00.5289,+00.0002,-00.0669,+12.412,+07.744,+00.518,-00.403196,+01.415903,-01.831475*6E",0,0,0,,-0.7289977192287216,0.10337883346464927,0.6109868904715834,0.29080949403806555,"(0.0, 0.0, 0.0, 0.0, 0.0, 0.0, 0.0, 0.0, 0.0)",-0.403196,1.415903,-1.831475,"(0.0, 0.0, 0.0, 0.0, 0.0, 0.0, 0.0, 0.0, 0.0)",12.412,7.744,0.518,"(0.0, 0.0, 0.0, 0.0, 0.0, 0.0, 0.0, 0.0, 0.0)",0,0,0,,-0.5289,0.0002,-0.0669,"(0.0, 0.0, 0.0, 0.0, 0.0, 0.0, 0.0, 0.0, 0.0)"
1677800807.741763,4053,1677800807,739677667,imu1_frame,"$VNYMR,+036.678,+068.849,-110.501,-00.5309,-00.0216,-00.1023,+11.782,+05.480,-00.745,-00.019618,+01.832329,-01.402553*60",0,0,0,,-0.7447201279654698,0.09261229937677395,0.5888381619580773,0.30014082033118095,"(0.0, 0.0, 0.0, 0.0, 0.0, 0.0, 0.0, 0.0, 0.0)",-0.019618,1.832329,-1.402553,"(0.0, 0.0, 0.0, 0.0, 0.0, 0.0, 0.0, 0.0, 0.0)",11.782,5.48,-0.745,"(0.0, 0.0, 0.0, 0.0, 0.0, 0.0, 0.0, 0.0, 0.0)",0,0,0,,-0.5309,-0.0216,-0.1023,"(0.0, 0.0, 0.0, 0.0, 0.0, 0.0, 0.0, 0.0, 0.0)"
1677800807.7847388,4054,1677800807,765046119,imu1_frame,"$VNYMR,+031.060,+065.914,-114.869,-00.5296,-00.0277,-00.1152,+10.954,+04.627,-01.455,+00.689982,+02.892275,-01.616952*6B",0,0,0,,-0.759738846786707,0.09279357101753957,0.5626645050068873,0.3124018128410462,"(0.0, 0.0, 0.0, 0.0, 0.0, 0.0, 0.0, 0.0, 0.0)",0.689982,2.892275,-1.616952,"(0.0, 0.0, 0.0, 0.0, 0.0, 0.0, 0.0, 0.0, 0.0)",10.954,4.627,-1.455,"(0.0, 0.0, 0.0, 0.0, 0.0, 0.0, 0.0, 0.0, 0.0)",0,0,0,,-0.5296,-0.0277,-0.1152,"(0.0, 0.0, 0.0, 0.0, 0.0, 0.0, 0.0, 0.0, 0.0)"
1677800807.8285165,4055,1677800807,790464878,imu1_frame,"$VNYMR,+025.708,+062.269,-118.316,-00.5189,-00.0640,-00.1560,+11.166,+04.707,-01.614,+01.015111,+02.898328,-02.105549*69",0,0,0,,-0.7754644791006587,0.09494023286776168,0.5304294503242796,0.329068066005867,"(0.0, 0.0, 0.0, 0.0, 0.0, 0.0, 0.0, 0.0, 0.0)",1.015111,2.898328,-2.105549,"(0.0, 0.0, 0.0, 0.0, 0.0, 0.0, 0.0, 0.0, 0.0)",11.166,4.707,-1.614,"(0.0, 0.0, 0.0, 0.0, 0.0, 0.0, 0.0, 0.0, 0.0)",0,0,0,,-0.5189,-0.064,-0.156,"(0.0, 0.0, 0.0, 0.0, 0.0, 0.0, 0.0, 0.0, 0.0)"
1677800807.8285348,4056,1677800807,813942670,imu1_frame,"$VNYMR,+022.875,+057.727,-120.234,-00.5055,-00.0998,-00.1954,+11.779,+06.518,+00.507,-00.116960,+02.440081,-02.799471*62",0,0,0,,-0.7919469271473285,0.08515699842324692,0.49675716159517985,0.34467473450391956,"(0.0, 0.0, 0.0, 0.0, 0.0, 0.0, 0.0, 0.0, 0.0)",-0.11696,2.440081,-2.799471,"(0.0, 0.0, 0.0, 0.0, 0.0, 0.0, 0.0, 0.0, 0.0)",11.779,6.518,0.507,"(0.0, 0.0, 0.0, 0.0, 0.0, 0.0, 0.0, 0.0, 0.0)",0,0,0,,-0.5055,-0.0998,-0.1954,"(0.0, 0.0, 0.0, 0.0, 0.0, 0.0, 0.0, 0.0, 0.0)"
1677800807.8745322,4057,1677800807,839397668,imu1_frame,"$VNYMR,+022.284,+053.089,-121.149,-00.4938,-00.1168,-00.2205,+12.070,+06.979,-02.021,-00.410440,+02.057312,-02.993963*6E",0,0,0,,-0.8069219166771469,0.06484626262244617,0.4668348977325252,0.3560016304303161,"(0.0, 0.0, 0.0, 0.0, 0.0, 0.0, 0.0, 0.0, 0.0)",-0.41044,2.057312,-2.993963,"(0.0, 0.0, 0.0, 0.0, 0.0, 0.0, 0.0, 0.0, 0.0)",12.07,6.979,-2.021,"(0.0, 0.0, 0.0, 0.0, 0.0, 0.0, 0.0, 0.0, 0.0)",0,0,0,,-0.4938,-0.1168,-0.2205,"(0.0, 0.0, 0.0, 0.0, 0.0, 0.0, 0.0, 0.0, 0.0)"
1677800807.874553,4058,1677800807,864809274,imu1_frame,"$VNYMR,+021.972,+048.245,-121.653,-00.4752,-00.1602,-00.2384,+12.397,+07.391,-01.886,+00.014625,+02.232721,-03.133384*69",0,0,0,,-0.8202595392333661,0.043702555877623755,0.43508806086470425,0.3687312764052165,"(0.0, 0.0, 0.0, 0.0, 0.0, 0.0, 0.0, 0.0, 0.0)",0.014625,2.232721,-3.133384,"(0.0, 0.0, 0.0, 0.0, 0.0, 0.0, 0.0, 0.0, 0.0)",12.397,7.391,-1.886,"(0.0, 0.0, 0.0, 0.0, 0.0, 0.0, 0.0, 0.0, 0.0)",0,0,0,,-0.4752,-0.1602,-0.2384,"(0.0, 0.0, 0.0, 0.0, 0.0, 0.0, 0.0, 0.0, 0.0)"
1677800807.9166403,4059,1677800807,890119791,imu1_frame,"$VNYMR,+021.469,+043.171,-121.353,-00.4462,-00.1953,-00.2699,+13.770,+06.905,-02.532,+00.436490,+02.515241,-03.247167*6B",0,0,0,,-0.8300951739794803,0.026013245445082905,0.39995912227163677,0.38768287776105353,"(0.0, 0.0, 0.0, 0.0, 0.0, 0.0, 0.0, 0.0, 0.0)",0.43649,2.515241,-3.247167,"(0.0, 0.0, 0.0, 0.0, 0.0, 0.0, 0.0, 0.0, 0.0)",13.77,6.905,-2.532,"(0.0, 0.0, 0.0, 0.0, 0.0, 0.0, 0.0, 0.0, 0.0)",0,0,0,,-0.4462,-0.1953,-0.2699,"(0.0, 0.0, 0.0, 0.0, 0.0, 0.0, 0.0, 0.0, 0.0)"
1677800807.9183643,4060,1677800807,915528535,imu1_frame,"$VNYMR,+020.161,+037.824,-121.084,-00.4166,-00.2142,-00.3012,+14.550,+06.938,-02.489,+00.775070,+03.184970,-03.072718*62",0,0,0,,-0.83889638294774,0.012758849388740862,0.3592874767933388,0.40865949084653624,"(0.0, 0.0, 0.0, 0.0, 0.0, 0.0, 0.0, 0.0, 0.0)",0.77507,3.18497,-3.072718,"(0.0, 0.0, 0.0, 0.0, 0.0, 0.0, 0.0, 0.0, 0.0)",14.55,6.938,-2.489,"(0.0, 0.0, 0.0, 0.0, 0.0, 0.0, 0.0, 0.0, 0.0)",0,0,0,,-0.4166,-0.2142,-0.3012,"(0.0, 0.0, 0.0, 0.0, 0.0, 0.0, 0.0, 0.0, 0.0)"
1677800807.9606953,4061,1677800807,939080715,imu1_frame,"$VNYMR,+017.818,+032.879,-121.530,-00.3808,-00.2360,-00.3179,+13.776,+06.467,+00.933,+00.163592,+03.092820,-02.349854*67",0,0,0,,-0.848257881948626,0.006934219778477552,0.3165187788462823,0.42453073498364424,"(0.0, 0.0, 0.0, 0.0, 0.0, 0.0, 0.0, 0.0, 0.0)",0.163592,3.09282,-2.349854,"(0.0, 0.0, 0.0, 0.0, 0.0, 0.0, 0.0, 0.0, 0.0)",13.776,6.467,0.933,"(0.0, 0.0, 0.0, 0.0, 0.0, 0.0, 0.0, 0.0, 0.0)",0,0,0,,-0.3808,-0.236,-0.3179,"(0.0, 0.0, 0.0, 0.0, 0.0, 0.0, 0.0, 0.0, 0.0)"
1677800808.005533,4062,1677800807,964510917,imu1_frame,"$VNYMR,+015.648,+028.667,-123.305,-00.3450,-00.2543,-00.3477,+12.339,+03.449,+00.963,-01.042742,+03.006561,-02.208307*6F",0,0,0,,-0.8607522126099989,0.00037740091323881786,0.27847538094555346,0.42609499910556425,"(0.0, 0.0, 0.0, 0.0, 0.0, 0.0, 0.0, 0.0, 0.0)",-1.042742,3.006561,-2.208307,"(0.0, 0.0, 0.0, 0.0, 0.0, 0.0, 0.0, 0.0, 0.0)",12.339,3.449,0.963,"(0.0, 0.0, 0.0, 0.0, 0.0, 0.0, 0.0, 0.0, 0.0)",0,0,0,,-0.345,-0.2543,-0.3477,"(0.0, 0.0, 0.0, 0.0, 0.0, 0.0, 0.0, 0.0, 0.0)"
1677800808.0055614,4063,1677800807,989832878,imu1_frame,"$VNYMR,+014.971,+029.309,-129.784,-00.3400,-00.2294,-00.3867,+07.842,-04.001,-00.406,-06.535334,-02.029599,+00.332605*66",0,0,0,,-0.8825716193323647,-0.007692737594574853,0.2806132132404767,0.3771795104352877,"(0.0, 0.0, 0.0, 0.0, 0.0, 0.0, 0.0, 0.0, 0.0)",-6.535334,-2.029599,0.332605,"(0.0, 0.0, 0.0, 0.0, 0.0, 0.0, 0.0, 0.0, 0.0)",7.842,-4.001,-0.406,"(0.0, 0.0, 0.0, 0.0, 0.0, 0.0, 0.0, 0.0, 0.0)",0,0,0,,-0.34,-0.2294,-0.3867,"(0.0, 0.0, 0.0, 0.0, 0.0, 0.0, 0.0, 0.0, 0.0)"
1677800808.0502203,4064,1677800808,15264987,imu1_frame,"$VNYMR,+015.745,+031.280,-131.195,-00.3549,-00.1969,-00.3777,+09.379,-11.495,-06.715,+03.463639,+01.518025,-00.898434*63",0,0,0,,-0.883938591694267,-0.009784070797845351,0.2976872852270601,0.3604706899129542,"(0.0, 0.0, 0.0, 0.0, 0.0, 0.0, 0.0, 0.0, 0.0)",3.463639,1.518025,-0.898434,"(0.0, 0.0, 0.0, 0.0, 0.0, 0.0, 0.0, 0.0, 0.0)",9.379,-11.495,-6.715,"(0.0, 0.0, 0.0, 0.0, 0.0, 0.0, 0.0, 0.0, 0.0)",0,0,0,,-0.3549,-0.1969,-0.3777,"(0.0, 0.0, 0.0, 0.0, 0.0, 0.0, 0.0, 0.0, 0.0)"
1677800808.0502424,4065,1677800808,40479421,imu1_frame,"$VNYMR,+013.832,+028.070,-127.338,-00.3239,-00.2379,-00.3906,+09.870,+02.556,+06.768,+01.950215,+02.517767,-00.945721*67",0,0,0,,-0.8761177762452064,0.0020871185767752515,0.26758732175052535,0.40101160995859153,"(0.0, 0.0, 0.0, 0.0, 0.0, 0.0, 0.0, 0.0, 0.0)",1.950215,2.517767,-0.945721,"(0.0, 0.0, 0.0, 0.0, 0.0, 0.0, 0.0, 0.0, 0.0)",9.87,2.556,6.768,"(0.0, 0.0, 0.0, 0.0, 0.0, 0.0, 0.0, 0.0, 0.0)",0,0,0,,-0.3239,-0.2379,-0.3906,"(0.0, 0.0, 0.0, 0.0, 0.0, 0.0, 0.0, 0.0, 0.0)"
1677800808.092742,4066,1677800808,65754652,imu1_frame,"$VNYMR,+012.085,+025.037,-125.988,-00.2999,-00.2691,-00.3833,+02.901,+02.234,+01.299,+02.533052,+01.991452,-02.424911*62",0,0,0,,-0.8753057785213416,0.006319915652397659,0.23870997176335257,0.42049661370103136,"(0.0, 0.0, 0.0, 0.0, 0.0, 0.0, 0.0, 0.0, 0.0)",2.533052,1.991452,-2.424911,"(0.0, 0.0, 0.0, 0.0, 0.0, 0.0, 0.0, 0.0, 0.0)",2.901,2.234,1.299,"(0.0, 0.0, 0.0, 0.0, 0.0, 0.0, 0.0, 0.0, 0.0)",0,0,0,,-0.2999,-0.2691,-0.3833,"(0.0, 0.0, 0.0, 0.0, 0.0, 0.0, 0.0, 0.0, 0.0)"
1677800808.0927572,4067,1677800808,89279413,imu1_frame,"$VNYMR,+012.282,+022.224,-126.294,-00.2813,-00.2741,-00.4067,+08.086,+14.004,+01.886,-01.365462,+01.041264,-00.594522*6E",0,0,0,,-0.879731503563161,-0.00709491384455925,0.2183739612041497,0.42229723762303595,"(0.0, 0.0, 0.0, 0.0, 0.0, 0.0, 0.0, 0.0, 0.0)",-1.365462,1.041264,-0.594522,"(0.0, 0.0, 0.0, 0.0, 0.0, 0.0, 0.0, 0.0, 0.0)",8.086,14.004,1.886,"(0.0, 0.0, 0.0, 0.0, 0.0, 0.0, 0.0, 0.0, 0.0)",0,0,0,,-0.2813,-0.2741,-0.4067,"(0.0, 0.0, 0.0, 0.0, 0.0, 0.0, 0.0, 0.0, 0.0)"
1677800808.1381392,4068,1677800808,114656448,imu1_frame,"$VNYMR,+010.265,+021.028,-126.207,-00.2652,-00.2778,-00.4081,-00.208,+03.585,+08.232,+00.459081,+01.238977,-00.986534*6C",0,0,0,,-0.8807207021423951,0.003774938722450591,0.20187412717181458,0.4284432651286123,"(0.0, 0.0, 0.0, 0.0, 0.0, 0.0, 0.0, 0.0, 0.0)",0.459081,1.238977,-0.986534,"(0.0, 0.0, 0.0, 0.0, 0.0, 0.0, 0.0, 0.0, 0.0)",-0.208,3.585,8.232,"(0.0, 0.0, 0.0, 0.0, 0.0, 0.0, 0.0, 0.0, 0.0)",0,0,0,,-0.2652,-0.2778,-0.4081,"(0.0, 0.0, 0.0, 0.0, 0.0, 0.0, 0.0, 0.0, 0.0)"
1677800808.142119,4069,1677800808,139994382,imu1_frame,"$VNYMR,+011.372,+016.842,-128.010,-00.2422,-00.2666,-00.4138,-03.147,+12.256,+07.054,-01.845675,+00.947676,-03.258981*69",0,0,0,,-0.8911263269960832,-0.02422291430212782,0.17393877890744008,0.4183926635941054,"(0.0, 0.0, 0.0, 0.0, 0.0, 0.0, 0.0, 0.0, 0.0)",-1.845675,0.947676,-3.258981,"(0.0, 0.0, 0.0, 0.0, 0.0, 0.0, 0.0, 0.0, 0.0)",-3.147,12.256,7.054,"(0.0, 0.0, 0.0, 0.0, 0.0, 0.0, 0.0, 0.0, 0.0)",0,0,0,,-0.2422,-0.2666,-0.4138,"(0.0, 0.0, 0.0, 0.0, 0.0, 0.0, 0.0, 0.0, 0.0)"
1677800808.1869245,4070,1677800808,165435552,imu1_frame,"$VNYMR,+013.206,+011.641,-130.538,-00.2121,-00.2645,-00.4402,-01.841,+09.215,+09.261,-01.738630,+00.900445,-03.196438*6F",0,0,0,,-0.9024841034976029,-0.06175887032059317,0.13935860956509802,0.4028491812216261,"(0.0, 0.0, 0.0, 0.0, 0.0, 0.0, 0.0, 0.0, 0.0)",-1.73863,0.900445,-3.196438,"(0.0, 0.0, 0.0, 0.0, 0.0, 0.0, 0.0, 0.0, 0.0)",-1.841,9.215,9.261,"(0.0, 0.0, 0.0, 0.0, 0.0, 0.0, 0.0, 0.0, 0.0)",0,0,0,,-0.2121,-0.2645,-0.4402,"(0.0, 0.0, 0.0, 0.0, 0.0, 0.0, 0.0, 0.0, 0.0)"
1677800808.230059,4071,1677800808,188889026,imu1_frame,"$VNYMR,+014.891,+008.693,-136.908,-00.1924,-00.2408,-00.4676,-06.166,+04.940,+08.696,-06.141682,-00.111608,-01.394430*6F",0,0,0,,-0.9232349181582509,-0.09258322374561506,0.11735007573162773,0.35396976184411366,"(0.0, 0.0, 0.0, 0.0, 0.0, 0.0, 0.0, 0.0, 0.0)",-6.141682,-0.111608,-1.39443,"(0.0, 0.0, 0.0, 0.0, 0.0, 0.0, 0.0, 0.0, 0.0)",-6.166,4.94,8.696,"(0.0, 0.0, 0.0, 0.0, 0.0, 0.0, 0.0, 0.0, 0.0)",0,0,0,,-0.1924,-0.2408,-0.4676,"(0.0, 0.0, 0.0, 0.0, 0.0, 0.0, 0.0, 0.0, 0.0)"
1677800808.2300794,4072,1677800808,214274883,imu1_frame,"$VNYMR,+017.990,+010.238,-146.833,-00.2117,-00.1495,-00.4916,+00.940,+04.064,+11.394,-03.427025,-01.990576,+00.721447*6B",0,0,0,,-0.9468243110878101,-0.12409465992594956,0.12890738627443143,0.2674081619450897,"(0.0, 0.0, 0.0, 0.0, 0.0, 0.0, 0.0, 0.0, 0.0)",-3.427025,-1.990576,0.721447,"(0.0, 0.0, 0.0, 0.0, 0.0, 0.0, 0.0, 0.0, 0.0)",0.94,4.064,11.394,"(0.0, 0.0, 0.0, 0.0, 0.0, 0.0, 0.0, 0.0, 0.0)",0,0,0,,-0.2117,-0.1495,-0.4916,"(0.0, 0.0, 0.0, 0.0, 0.0, 0.0, 0.0, 0.0, 0.0)"
1677800808.2725198,4073,1677800808,239709377,imu1_frame,"$VNYMR,+017.432,+013.152,-148.683,-00.2347,-00.1434,-00.4791,+03.317,-01.932,+13.143,+00.732726,-01.780347,+01.269302*6F",0,0,0,,-0.9501897838074027,-0.11440032883527868,0.14962859782079302,0.24832080505790238,"(0.0, 0.0, 0.0, 0.0, 0.0, 0.0, 0.0, 0.0, 0.0)",0.732726,-1.780347,1.269302,"(0.0, 0.0, 0.0, 0.0, 0.0, 0.0, 0.0, 0.0, 0.0)",3.317,-1.932,13.143,"(0.0, 0.0, 0.0, 0.0, 0.0, 0.0, 0.0, 0.0, 0.0)",0,0,0,,-0.2347,-0.1434,-0.4791,"(0.0, 0.0, 0.0, 0.0, 0.0, 0.0, 0.0, 0.0, 0.0)"
1677800808.2725418,4074,1677800808,265115022,imu1_frame,"$VNYMR,+020.839,+016.091,-149.983,-00.2611,-00.1325,-00.4656,-02.255,+03.561,+07.153,-03.072416,-02.935064,-01.509608*67",0,0,0,,-0.947164590231939,-0.1373185523281883,0.17932923542748025,0.22773642554112694,"(0.0, 0.0, 0.0, 0.0, 0.0, 0.0, 0.0, 0.0, 0.0)",-3.072416,-2.935064,-1.509608,"(0.0, 0.0, 0.0, 0.0, 0.0, 0.0, 0.0, 0.0, 0.0)",-2.255,3.561,7.153,"(0.0, 0.0, 0.0, 0.0, 0.0, 0.0, 0.0, 0.0, 0.0)",0,0,0,,-0.2611,-0.1325,-0.4656,"(0.0, 0.0, 0.0, 0.0, 0.0, 0.0, 0.0, 0.0, 0.0)"
1677800808.316861,4075,1677800808,290422677,imu1_frame,"$VNYMR,+024.030,+017.864,-150.434,-00.2816,-00.1264,-00.4659,+02.857,+05.988,+08.413,-00.097231,-02.234612,-01.141837*6B",0,0,0,,-0.942495865284837,-0.16008776068082772,0.19930584604566642,0.21529197043365506,"(0.0, 0.0, 0.0, 0.0, 0.0, 0.0, 0.0, 0.0, 0.0)",-0.097231,-2.234612,-1.141837,"(0.0, 0.0, 0.0, 0.0, 0.0, 0.0, 0.0, 0.0, 0.0)",2.857,5.988,8.413,"(0.0, 0.0, 0.0, 0.0, 0.0, 0.0, 0.0, 0.0, 0.0)",0,0,0,,-0.2816,-0.1264,-0.4659,"(0.0, 0.0, 0.0, 0.0, 0.0, 0.0, 0.0, 0.0, 0.0)"
1677800808.316884,4076,1677800808,314033508,imu1_frame,"$VNYMR,+027.951,+019.750,-149.534,-00.3012,-00.1274,-00.4426,+04.617,+06.504,+08.799,-00.232746,-02.439400,-01.968501*60",0,0,0,,-0.933314815281162,-0.18584258253557867,0.22309011197500436,0.2112268733664756,"(0.0, 0.0, 0.0, 0.0, 0.0, 0.0, 0.0, 0.0, 0.0)",-0.232746,-2.4394,-1.968501,"(0.0, 0.0, 0.0, 0.0, 0.0, 0.0, 0.0, 0.0, 0.0)",4.617,6.504,8.799,"(0.0, 0.0, 0.0, 0.0, 0.0, 0.0, 0.0, 0.0, 0.0)",0,0,0,,-0.3012,-0.1274,-0.4426,"(0.0, 0.0, 0.0, 0.0, 0.0, 0.0, 0.0, 0.0, 0.0)"
1677800808.363298,4077,1677800808,339341878,imu1_frame,"$VNYMR,+034.039,+021.056,-147.969,-00.3141,-00.1434,-00.4223,+07.594,+18.642,+09.986,-01.008528,-02.970139,-04.257321*6E",0,0,0,,-0.9183749694416464,-0.22839749380545482,0.24732778354699342,0.20796867026591723,"(0.0, 0.0, 0.0, 0.0, 0.0, 0.0, 0.0, 0.0, 0.0)",-1.008528,-2.970139,-4.257321,"(0.0, 0.0, 0.0, 0.0, 0.0, 0.0, 0.0, 0.0, 0.0)",7.594,18.642,9.986,"(0.0, 0.0, 0.0, 0.0, 0.0, 0.0, 0.0, 0.0, 0.0)",0,0,0,,-0.3141,-0.1434,-0.4223,"(0.0, 0.0, 0.0, 0.0, 0.0, 0.0, 0.0, 0.0, 0.0)"
1677800808.3667207,4078,1677800808,364735603,imu1_frame,"$VNYMR,+037.943,+023.370,-144.688,-00.3359,-00.1717,-00.4069,+05.676,+06.836,+09.145,+03.570483,-02.371124,-01.082136*60",0,0,0,,-0.9024286858644021,-0.24527278526500515,0.279066626625504,0.21814111405522896,"(0.0, 0.0, 0.0, 0.0, 0.0, 0.0, 0.0, 0.0, 0.0)",3.570483,-2.371124,-1.082136,"(0.0, 0.0, 0.0, 0.0, 0.0, 0.0, 0.0, 0.0, 0.0)",5.676,6.836,9.145,"(0.0, 0.0, 0.0, 0.0, 0.0, 0.0, 0.0, 0.0, 0.0)",0,0,0,,-0.3359,-0.1717,-0.4069,"(0.0, 0.0, 0.0, 0.0, 0.0, 0.0, 0.0, 0.0, 0.0)"
1677800808.413578,4079,1677800808,390143632,imu1_frame,"$VNYMR,+044.195,+025.844,-140.282,-00.3544,-00.1798,-00.3771,+05.796,+08.649,+06.742,-00.619552,-04.930017,-02.765618*60",0,0,0,,-0.877953209040703,-0.2744660141975984,0.3194321450986422,0.22766131525425098,"(0.0, 0.0, 0.0, 0.0, 0.0, 0.0, 0.0, 0.0, 0.0)",-0.619552,-4.930017,-2.765618,"(0.0, 0.0, 0.0, 0.0, 0.0, 0.0, 0.0, 0.0, 0.0)",5.796,8.649,6.742,"(0.0, 0.0, 0.0, 0.0, 0.0, 0.0, 0.0, 0.0, 0.0)",0,0,0,,-0.3544,-0.1798,-0.3771,"(0.0, 0.0, 0.0, 0.0, 0.0, 0.0, 0.0, 0.0, 0.0)"
1677800808.4576457,4080,1677800808,415535449,imu1_frame,"$VNYMR,+052.659,+030.079,-135.774,-00.3892,-00.2083,-00.3123,+07.231,+18.562,-12.133,+02.655992,-04.370079,-00.333601*60",0,0,0,,-0.8452149646744495,-0.3092874628265057,0.3767008178639299,0.21920178523305492,"(0.0, 0.0, 0.0, 0.0, 0.0, 0.0, 0.0, 0.0, 0.0)",2.655992,-4.370079,-0.333601,"(0.0, 0.0, 0.0, 0.0, 0.0, 0.0, 0.0, 0.0, 0.0)",7.231,18.562,-12.133,"(0.0, 0.0, 0.0, 0.0, 0.0, 0.0, 0.0, 0.0, 0.0)",0,0,0,,-0.3892,-0.2083,-0.3123,"(0.0, 0.0, 0.0, 0.0, 0.0, 0.0, 0.0, 0.0, 0.0)"
1677800808.4576876,4081,1677800808,439106464,imu1_frame,"$VNYMR,+050.253,+031.497,-133.085,-00.3972,-00.2095,-00.3065,+02.905,+07.717,-05.605,+00.588870,+03.316640,+01.895381*62",0,0,0,,-0.8452482584646516,-0.27708582198084764,0.38810588239443855,0.24114861158734788,"(0.0, 0.0, 0.0, 0.0, 0.0, 0.0, 0.0, 0.0, 0.0)",0.58887,3.31664,1.895381,"(0.0, 0.0, 0.0, 0.0, 0.0, 0.0, 0.0, 0.0, 0.0)",2.905,7.717,-5.605,"(0.0, 0.0, 0.0, 0.0, 0.0, 0.0, 0.0, 0.0, 0.0)",0,0,0,,-0.3972,-0.2095,-0.3065,"(0.0, 0.0, 0.0, 0.0, 0.0, 0.0, 0.0, 0.0, 0.0)"
1677800808.5016391,4082,1677800808,464416742,imu1_frame,"$VNYMR,+043.011,+029.229,-135.213,-00.3775,-00.1932,-00.3516,+02.468,+05.874,+08.402,+01.112254,+03.947753,+01.852610*6B",0,0,0,,-0.8676271778243585,-0.23854803913424402,0.35218590396674976,0.2574548550190295,"(0.0, 0.0, 0.0, 0.0, 0.0, 0.0, 0.0, 0.0, 0.0)",1.112254,3.947753,1.85261,"(0.0, 0.0, 0.0, 0.0, 0.0, 0.0, 0.0, 0.0, 0.0)",2.468,5.874,8.402,"(0.0, 0.0, 0.0, 0.0, 0.0, 0.0, 0.0, 0.0, 0.0)",0,0,0,,-0.3775,-0.1932,-0.3516,"(0.0, 0.0, 0.0, 0.0, 0.0, 0.0, 0.0, 0.0, 0.0)"
1677800808.5016668,4083,1677800808,489801406,imu1_frame,"$VNYMR,+038.030,+028.200,-134.160,-00.3650,-00.1850,-00.3507,+05.702,+06.401,+11.409,+03.147219,+01.418575,+01.677092*60",0,0,0,,-0.8754674069954671,-0.2013534331153912,0.3352023152778799,0.2839947571586976,"(0.0, 0.0, 0.0, 0.0, 0.0, 0.0, 0.0, 0.0, 0.0)",3.147219,1.418575,1.677092,"(0.0, 0.0, 0.0, 0.0, 0.0, 0.0, 0.0, 0.0, 0.0)",5.702,6.401,11.409,"(0.0, 0.0, 0.0, 0.0, 0.0, 0.0, 0.0, 0.0, 0.0)",0,0,0,,-0.365,-0.185,-0.3507,"(0.0, 0.0, 0.0, 0.0, 0.0, 0.0, 0.0, 0.0, 0.0)"
1677800808.5455217,4084,1677800808,515236139,imu1_frame,"$VNYMR,+035.784,+028.624,-132.037,-00.3651,-00.2027,-00.3428,+07.779,+04.179,+00.912,+00.879882,+01.172437,+00.689423*6A",0,0,0,,-0.8733711435129078,-0.17637726259058772,0.33593245649617554,0.30539039210893987,"(0.0, 0.0, 0.0, 0.0, 0.0, 0.0, 0.0, 0.0, 0.0)",0.879882,1.172437,0.689423,"(0.0, 0.0, 0.0, 0.0, 0.0, 0.0, 0.0, 0.0, 0.0)",7.779,4.179,0.912,"(0.0, 0.0, 0.0, 0.0, 0.0, 0.0, 0.0, 0.0, 0.0)",0,0,0,,-0.3651,-0.2027,-0.3428,"(0.0, 0.0, 0.0, 0.0, 0.0, 0.0, 0.0, 0.0, 0.0)"
1677800808.5455437,4085,1677800808,540646314,imu1_frame,"$VNYMR,+033.122,+027.614,-132.358,-00.3535,-00.2064,-00.3716,+08.289,+11.287,+04.728,+00.819341,+01.681982,+00.986062*63",0,0,0,,-0.8789993235142346,-0.16083127887062676,0.3210591748314935,0.3137108465687428,"(0.0, 0.0, 0.0, 0.0, 0.0, 0.0, 0.0, 0.0, 0.0)",0.819341,1.681982,0.986062,"(0.0, 0.0, 0.0, 0.0, 0.0, 0.0, 0.0, 0.0, 0.0)",8.289,11.287,4.728,"(0.0, 0.0, 0.0, 0.0, 0.0, 0.0, 0.0, 0.0, 0.0)",0,0,0,,-0.3535,-0.2064,-0.3716,"(0.0, 0.0, 0.0, 0.0, 0.0, 0.0, 0.0, 0.0, 0.0)"
1677800808.5895844,4086,1677800808,564171314,imu1_frame,"$VNYMR,+030.135,+027.802,-130.758,-00.3471,-00.1931,-00.3540,+06.581,+06.891,+05.057,+02.273545,+01.264785,+01.096223*69",0,0,0,,-0.8781387185731105,-0.13275272718877487,0.316023858781896,0.3337334640807217,"(0.0, 0.0, 0.0, 0.0, 0.0, 0.0, 0.0, 0.0, 0.0)",2.273545,1.264785,1.096223,"(0.0, 0.0, 0.0, 0.0, 0.0, 0.0, 0.0, 0.0, 0.0)",6.581,6.891,5.057,"(0.0, 0.0, 0.0, 0.0, 0.0, 0.0, 0.0, 0.0, 0.0)",0,0,0,,-0.3471,-0.1931,-0.354,"(0.0, 0.0, 0.0, 0.0, 0.0, 0.0, 0.0, 0.0, 0.0)"
1677800808.5917175,4087,1677800808,589555025,imu1_frame,"$VNYMR,+027.624,+026.943,-128.180,-00.3356,-00.2121,-00.3671,+02.534,+08.484,+03.981,+02.977105,+02.127725,+00.055506*6A",0,0,0,,-0.873741734299709,-0.10997984663113557,0.3049335219379499,0.3626228926535752,"(0.0, 0.0, 0.0, 0.0, 0.0, 0.0, 0.0, 0.0, 0.0)",2.977105,2.127725,0.055506,"(0.0, 0.0, 0.0, 0.0, 0.0, 0.0, 0.0, 0.0, 0.0)",2.534,8.484,3.981,"(0.0, 0.0, 0.0, 0.0, 0.0, 0.0, 0.0, 0.0, 0.0)",0,0,0,,-0.3356,-0.2121,-0.3671,"(0.0, 0.0, 0.0, 0.0, 0.0, 0.0, 0.0, 0.0, 0.0)"
1677800808.6334763,4088,1677800808,615023374,imu1_frame,"$VNYMR,+024.079,+024.195,-124.513,-00.3165,-00.2453,-00.3589,-00.811,+09.225,+06.834,+04.159554,+03.189609,-00.149399*68",0,0,0,,-0.8667005769559547,-0.08509274772425447,0.2763466332319046,0.40647493463969325,"(0.0, 0.0, 0.0, 0.0, 0.0, 0.0, 0.0, 0.0, 0.0)",4.159554,3.189609,-0.149399,"(0.0, 0.0, 0.0, 0.0, 0.0, 0.0, 0.0, 0.0, 0.0)",-0.811,9.225,6.834,"(0.0, 0.0, 0.0, 0.0, 0.0, 0.0, 0.0, 0.0, 0.0)",0,0,0,,-0.3165,-0.2453,-0.3589,"(0.0, 0.0, 0.0, 0.0, 0.0, 0.0, 0.0, 0.0, 0.0)"
1677800808.6766574,4089,1677800808,640286445,imu1_frame,"$VNYMR,+019.834,+020.595,-118.848,-00.2860,-00.2786,-00.3640,-01.559,+10.515,+08.884,+05.443143,+03.727984,-00.710288*6C",0,0,0,,-0.8500910147133586,-0.056313854129744934,0.23779877846840553,0.46650375935848626,"(0.0, 0.0, 0.0, 0.0, 0.0, 0.0, 0.0, 0.0, 0.0)",5.443143,3.727984,-0.710288,"(0.0, 0.0, 0.0, 0.0, 0.0, 0.0, 0.0, 0.0, 0.0)",-1.559,10.515,8.884,"(0.0, 0.0, 0.0, 0.0, 0.0, 0.0, 0.0, 0.0, 0.0)",0,0,0,,-0.286,-0.2786,-0.364,"(0.0, 0.0, 0.0, 0.0, 0.0, 0.0, 0.0, 0.0, 0.0)"
1677800808.6766825,4090,1677800808,665683984,imu1_frame,"$VNYMR,+015.409,+016.506,-112.441,-00.2511,-00.3260,-00.3494,-02.733,+11.281,+05.650,+05.107095,+03.947428,-01.429802*6E",0,0,0,,-0.8258496643751099,-0.031187806911502275,0.1920021179368543,0.5292776580012908,"(0.0, 0.0, 0.0, 0.0, 0.0, 0.0, 0.0, 0.0, 0.0)",5.107095,3.947428,-1.429802,"(0.0, 0.0, 0.0, 0.0, 0.0, 0.0, 0.0, 0.0, 0.0)",-2.733,11.281,5.65,"(0.0, 0.0, 0.0, 0.0, 0.0, 0.0, 0.0, 0.0, 0.0)",0,0,0,,-0.2511,-0.326,-0.3494,"(0.0, 0.0, 0.0, 0.0, 0.0, 0.0, 0.0, 0.0, 0.0)"
1677800808.7246952,4091,1677800808,689181089,imu1_frame,"$VNYMR,+010.421,+011.602,-106.643,-00.2036,-00.3581,-00.3126,-01.483,+15.009,+02.904,+04.977132,+04.445596,-02.127954*60",0,0,0,,-0.8000785314098926,-0.012336427973712698,0.13469435192750956,0.5844481052075259,"(0.0, 0.0, 0.0, 0.0, 0.0, 0.0, 0.0, 0.0, 0.0)",4.977132,4.445596,-2.127954,"(0.0, 0.0, 0.0, 0.0, 0.0, 0.0, 0.0, 0.0, 0.0)",-1.483,15.009,2.904,"(0.0, 0.0, 0.0, 0.0, 0.0, 0.0, 0.0, 0.0, 0.0)",0,0,0,,-0.2036,-0.3581,-0.3126,"(0.0, 0.0, 0.0, 0.0, 0.0, 0.0, 0.0, 0.0, 0.0)"
1677800808.7247174,4092,1677800808,714613199,imu1_frame,"$VNYMR,+005.081,+006.834,-099.824,-00.1564,-00.3972,-00.2959,+00.667,+14.976,+02.217,+05.416663,+04.125397,-02.262468*65",0,0,0,,-0.7646468531322438,0.004492878798495012,0.07404778566358937,0.6401655484899027,"(0.0, 0.0, 0.0, 0.0, 0.0, 0.0, 0.0, 0.0, 0.0)",5.416663,4.125397,-2.262468,"(0.0, 0.0, 0.0, 0.0, 0.0, 0.0, 0.0, 0.0, 0.0)",0.667,14.976,2.217,"(0.0, 0.0, 0.0, 0.0, 0.0, 0.0, 0.0, 0.0, 0.0)",0,0,0,,-0.1564,-0.3972,-0.2959,"(0.0, 0.0, 0.0, 0.0, 0.0, 0.0, 0.0, 0.0, 0.0)"
1677800808.770329,4093,1677800808,739975929,imu1_frame,"$VNYMR,+000.946,+003.071,-092.307,-00.1151,-00.4377,-00.2458,+03.134,+14.942,+02.853,+05.273940,+02.196138,-02.129364*63",0,0,0,,-0.7210679635102029,0.012610369697092555,0.025041442154471853,0.692296827054823,"(0.0, 0.0, 0.0, 0.0, 0.0, 0.0, 0.0, 0.0, 0.0)",5.27394,2.196138,-2.129364,"(0.0, 0.0, 0.0, 0.0, 0.0, 0.0, 0.0, 0.0, 0.0)",3.134,14.942,2.853,"(0.0, 0.0, 0.0, 0.0, 0.0, 0.0, 0.0, 0.0, 0.0)",0,0,0,,-0.1151,-0.4377,-0.2458,"(0.0, 0.0, 0.0, 0.0, 0.0, 0.0, 0.0, 0.0, 0.0)"
1677800808.7703571,4094,1677800808,765346527,imu1_frame,"$VNYMR,+000.173,+000.193,-086.187,-00.0884,-00.4517,-00.2027,+04.654,+12.911,-00.130,+03.717314,-00.612063,-02.252267*69",0,0,0,,-0.6831910442276311,0.00019848087061496338,0.002253105691250418,0.7302361817982228,"(0.0, 0.0, 0.0, 0.0, 0.0, 0.0, 0.0, 0.0, 0.0)",3.717314,-0.612063,-2.252267,"(0.0, 0.0, 0.0, 0.0, 0.0, 0.0, 0.0, 0.0, 0.0)",4.654,12.911,-0.13,"(0.0, 0.0, 0.0, 0.0, 0.0, 0.0, 0.0, 0.0, 0.0)",0,0,0,,-0.0884,-0.4517,-0.2027,"(0.0, 0.0, 0.0, 0.0, 0.0, 0.0, 0.0, 0.0, 0.0)"
1677800808.8143282,4095,1677800808,788972377,imu1_frame,"$VNYMR,+002.428,-003.052,-081.825,-00.0719,-00.4693,-00.1615,+05.647,+12.973,-04.306,+02.678129,-02.462357,-02.157643*69",0,0,0,,-0.654100100013117,-0.03399086857276906,-0.001431256625042194,0.7556425289255312,"(0.0, 0.0, 0.0, 0.0, 0.0, 0.0, 0.0, 0.0, 0.0)",2.678129,-2.462357,-2.157643,"(0.0, 0.0, 0.0, 0.0, 0.0, 0.0, 0.0, 0.0, 0.0)",5.647,12.973,-4.306,"(0.0, 0.0, 0.0, 0.0, 0.0, 0.0, 0.0, 0.0, 0.0)",0,0,0,,-0.0719,-0.4693,-0.1615,"(0.0, 0.0, 0.0, 0.0, 0.0, 0.0, 0.0, 0.0, 0.0)"
1677800808.8166847,4096,1677800808,814224720,imu1_frame,"$VNYMR,+005.333,-006.438,-078.277,-00.0497,-00.4787,-00.1290,+05.667,+12.808,-07.874,+02.722094,-02.141176,-02.075306*66",0,0,0,,-0.6274926739242055,-0.07282453531591745,0.0006219077183761065,0.7752090972494203,"(0.0, 0.0, 0.0, 0.0, 0.0, 0.0, 0.0, 0.0, 0.0)",2.722094,-2.141176,-2.075306,"(0.0, 0.0, 0.0, 0.0, 0.0, 0.0, 0.0, 0.0, 0.0)",5.667,12.808,-7.874,"(0.0, 0.0, 0.0, 0.0, 0.0, 0.0, 0.0, 0.0, 0.0)",0,0,0,,-0.0497,-0.4787,-0.129,"(0.0, 0.0, 0.0, 0.0, 0.0, 0.0, 0.0, 0.0, 0.0)"
1677800808.860582,4097,1677800808,839699268,imu1_frame,"$VNYMR,+006.835,-009.457,-074.308,-00.0296,-00.4828,-00.1066,+06.295,+12.630,-07.883,+03.050590,-01.126555,-01.784243*65",0,0,0,,-0.5969169273904421,-0.10146474655190277,-0.0023490280738376473,0.7958577568064661,"(0.0, 0.0, 0.0, 0.0, 0.0, 0.0, 0.0, 0.0, 0.0)",3.05059,-1.126555,-1.784243,"(0.0, 0.0, 0.0, 0.0, 0.0, 0.0, 0.0, 0.0, 0.0)",6.295,12.63,-7.883,"(0.0, 0.0, 0.0, 0.0, 0.0, 0.0, 0.0, 0.0, 0.0)",0,0,0,,-0.0296,-0.4828,-0.1066,"(0.0, 0.0, 0.0, 0.0, 0.0, 0.0, 0.0, 0.0, 0.0)"
1677800808.9090686,4098,1677800808,865111112,imu1_frame,"$VNYMR,+007.456,-011.870,-069.687,-00.0153,-00.4709,-00.0685,+07.126,+10.528,-05.431,+03.386102,-01.110792,-01.589322*68",0,0,0,,-0.5615541545136679,-0.12163173540863001,-0.005874426741405765,0.8184302924503617,"(0.0, 0.0, 0.0, 0.0, 0.0, 0.0, 0.0, 0.0, 0.0)",3.386102,-1.110792,-1.589322,"(0.0, 0.0, 0.0, 0.0, 0.0, 0.0, 0.0, 0.0, 0.0)",7.126,10.528,-5.431,"(0.0, 0.0, 0.0, 0.0, 0.0, 0.0, 0.0, 0.0, 0.0)",0,0,0,,-0.0153,-0.4709,-0.0685,"(0.0, 0.0, 0.0, 0.0, 0.0, 0.0, 0.0, 0.0, 0.0)"
1677800808.9090934,4099,1677800808,890431165,imu1_frame,"$VNYMR,+008.703,-014.409,-065.099,+00.0023,-00.4838,-00.0261,+08.069,+09.674,-03.674,+03.299117,-01.853879,-01.308070*63",0,0,0,,-0.5242205946744157,-0.14590828752115678,-0.0038280710010866886,0.8389808612979535,"(0.0, 0.0, 0.0, 0.0, 0.0, 0.0, 0.0, 0.0, 0.0)",3.299117,-1.853879,-1.30807,"(0.0, 0.0, 0.0, 0.0, 0.0, 0.0, 0.0, 0.0, 0.0)",8.069,9.674,-3.674,"(0.0, 0.0, 0.0, 0.0, 0.0, 0.0, 0.0, 0.0, 0.0)",0,0,0,,0.0023,-0.4838,-0.0261,"(0.0, 0.0, 0.0, 0.0, 0.0, 0.0, 0.0, 0.0, 0.0)"
1677800808.9530883,4100,1677800808,913999795,imu1_frame,"$VNYMR,+011.089,-016.981,-061.387,+00.0168,-00.4826,-00.0046,+08.202,+08.442,-01.982,+02.924934,-02.609722,-00.821284*6C",0,0,0,,-0.490222201938273,-0.17514592200563445,0.00716061662525895,0.8537885126312801,"(0.0, 0.0, 0.0, 0.0, 0.0, 0.0, 0.0, 0.0, 0.0)",2.924934,-2.609722,-0.821284,"(0.0, 0.0, 0.0, 0.0, 0.0, 0.0, 0.0, 0.0, 0.0)",8.202,8.442,-1.982,"(0.0, 0.0, 0.0, 0.0, 0.0, 0.0, 0.0, 0.0, 0.0)",0,0,0,,0.0168,-0.4826,-0.0046,"(0.0, 0.0, 0.0, 0.0, 0.0, 0.0, 0.0, 0.0, 0.0)"
1677800808.9531107,4101,1677800808,939363479,imu1_frame,"$VNYMR,+014.788,-019.803,-058.850,+00.0278,-00.4633,+00.0221,+08.573,+06.674,-01.102,+02.319096,-03.537174,-00.442628*61",0,0,0,,-0.46066723505232127,-0.21080965796830978,0.026644655797878933,0.8617627567805111,"(0.0, 0.0, 0.0, 0.0, 0.0, 0.0, 0.0, 0.0, 0.0)",2.319096,-3.537174,-0.442628,"(0.0, 0.0, 0.0, 0.0, 0.0, 0.0, 0.0, 0.0, 0.0)",8.573,6.674,-1.102,"(0.0, 0.0, 0.0, 0.0, 0.0, 0.0, 0.0, 0.0, 0.0)",0,0,0,,0.0278,-0.4633,0.0221,"(0.0, 0.0, 0.0, 0.0, 0.0, 0.0, 0.0, 0.0, 0.0)"
1677800808.9970913,4102,1677800808,964734554,imu1_frame,"$VNYMR,+019.699,-022.715,-057.683,+00.0354,-00.4785,+00.0445,+08.376,+06.396,-01.754,+01.881979,-03.993379,+00.082551*65",0,0,0,,-0.4364625706132911,-0.25086165082425843,0.053311097096342075,0.8623959551886535,"(0.0, 0.0, 0.0, 0.0, 0.0, 0.0, 0.0, 0.0, 0.0)",1.881979,-3.993379,0.082551,"(0.0, 0.0, 0.0, 0.0, 0.0, 0.0, 0.0, 0.0, 0.0)",8.376,6.396,-1.754,"(0.0, 0.0, 0.0, 0.0, 0.0, 0.0, 0.0, 0.0, 0.0)",0,0,0,,0.0354,-0.4785,0.0445,"(0.0, 0.0, 0.0, 0.0, 0.0, 0.0, 0.0, 0.0, 0.0)"
1677800808.9971178,4103,1677800808,990137577,imu1_frame,"$VNYMR,+025.366,-024.985,-057.345,+00.0420,-00.4691,+00.0590,+07.977,+06.385,-02.071,+01.784174,-03.930822,+00.796903*67",0,0,0,,-0.4153436699885528,-0.288005840362028,0.08681869707621481,0.8584898284521433,"(0.0, 0.0, 0.0, 0.0, 0.0, 0.0, 0.0, 0.0, 0.0)",1.784174,-3.930822,0.796903,"(0.0, 0.0, 0.0, 0.0, 0.0, 0.0, 0.0, 0.0, 0.0)",7.977,6.385,-2.071,"(0.0, 0.0, 0.0, 0.0, 0.0, 0.0, 0.0, 0.0, 0.0)",0,0,0,,0.042,-0.4691,0.059,"(0.0, 0.0, 0.0, 0.0, 0.0, 0.0, 0.0, 0.0, 0.0)"
1677800809.0406277,4104,1677800809,15522241,imu1_frame,"$VNYMR,+031.243,-026.111,-057.117,+00.0389,-00.4630,+00.0589,+06.941,+06.047,-01.753,+01.900713,-03.427623,+01.518230*63",0,0,0,,-0.39506859706274106,-0.3164850523407218,0.12640273832514604,0.8531004413336526,"(0.0, 0.0, 0.0, 0.0, 0.0, 0.0, 0.0, 0.0, 0.0)",1.900713,-3.427623,1.51823,"(0.0, 0.0, 0.0, 0.0, 0.0, 0.0, 0.0, 0.0, 0.0)",6.941,6.047,-1.753,"(0.0, 0.0, 0.0, 0.0, 0.0, 0.0, 0.0, 0.0, 0.0)",0,0,0,,0.0389,-0.463,0.0589,"(0.0, 0.0, 0.0, 0.0, 0.0, 0.0, 0.0, 0.0, 0.0)"
1677800809.0413713,4105,1677800809,39028644,imu1_frame,"$VNYMR,+037.175,-026.372,-057.275,+00.0240,-00.4605,+00.0858,+06.416,+04.711,-00.139,+01.473959,-03.275594,+01.949216*69",0,0,0,,-0.37847324991934467,-0.3385041648711626,0.16875925098897648,0.844803672261198,"(0.0, 0.0, 0.0, 0.0, 0.0, 0.0, 0.0, 0.0, 0.0)",1.473959,-3.275594,1.949216,"(0.0, 0.0, 0.0, 0.0, 0.0, 0.0, 0.0, 0.0, 0.0)",6.416,4.711,-0.139,"(0.0, 0.0, 0.0, 0.0, 0.0, 0.0, 0.0, 0.0, 0.0)",0,0,0,,0.024,-0.4605,0.0858,"(0.0, 0.0, 0.0, 0.0, 0.0, 0.0, 0.0, 0.0, 0.0)"
1677800809.0849442,4106,1677800809,64512252,imu1_frame,"$VNYMR,+043.295,-026.450,-058.271,+00.0138,-00.4674,+00.0978,+05.329,+04.073,-00.363,+01.075820,-03.349504,+01.879273*6F",0,0,0,,-0.3668201537878968,-0.3605782763470816,0.21014405824108545,0.8314239328931773,"(0.0, 0.0, 0.0, 0.0, 0.0, 0.0, 0.0, 0.0, 0.0)",1.07582,-3.349504,1.879273,"(0.0, 0.0, 0.0, 0.0, 0.0, 0.0, 0.0, 0.0, 0.0)",5.329,4.073,-0.363,"(0.0, 0.0, 0.0, 0.0, 0.0, 0.0, 0.0, 0.0, 0.0)",0,0,0,,0.0138,-0.4674,0.0978,"(0.0, 0.0, 0.0, 0.0, 0.0, 0.0, 0.0, 0.0, 0.0)"
1677800809.1308525,4107,1677800809,89770078,imu1_frame,"$VNYMR,+049.189,-026.355,-059.408,+00.0086,-00.4677,+00.0910,+05.141,+04.579,-02.259,+00.963079,-02.970706,+01.970069*6B",0,0,0,,-0.356288199268626,-0.3808497906313918,0.24927107168114385,0.8160123092581869,"(0.0, 0.0, 0.0, 0.0, 0.0, 0.0, 0.0, 0.0, 0.0)",0.963079,-2.970706,1.970069,"(0.0, 0.0, 0.0, 0.0, 0.0, 0.0, 0.0, 0.0, 0.0)",5.141,4.579,-2.259,"(0.0, 0.0, 0.0, 0.0, 0.0, 0.0, 0.0, 0.0, 0.0)",0,0,0,,0.0086,-0.4677,0.091,"(0.0, 0.0, 0.0, 0.0, 0.0, 0.0, 0.0, 0.0, 0.0)"
1677800809.130875,4108,1677800809,115190744,imu1_frame,"$VNYMR,+054.528,-025.257,-060.000,-00.0073,-00.4547,+00.1139,+05.205,+05.846,-03.515,+01.374393,-02.303298,+02.574891*6F",0,0,0,,-0.34696643519802317,-0.3918080358678377,0.28995111511582383,0.8012671880954901,"(0.0, 0.0, 0.0, 0.0, 0.0, 0.0, 0.0, 0.0, 0.0)",1.374393,-2.303298,2.574891,"(0.0, 0.0, 0.0, 0.0, 0.0, 0.0, 0.0, 0.0, 0.0)",5.205,5.846,-3.515,"(0.0, 0.0, 0.0, 0.0, 0.0, 0.0, 0.0, 0.0, 0.0)",0,0,0,,-0.0073,-0.4547,0.1139,"(0.0, 0.0, 0.0, 0.0, 0.0, 0.0, 0.0, 0.0, 0.0)"
1677800809.172869,4109,1677800809,140616893,imu1_frame,"$VNYMR,+059.572,-022.876,-059.715,-00.0342,-00.4545,+00.1170,+04.371,+05.160,-02.948,+01.607249,-01.807082,+03.208050*65",0,0,0,,-0.33805596620072653,-0.3916624329325182,0.3365853699167105,0.7867839545285003,"(0.0, 0.0, 0.0, 0.0, 0.0, 0.0, 0.0, 0.0, 0.0)",1.607249,-1.807082,3.20805,"(0.0, 0.0, 0.0, 0.0, 0.0, 0.0, 0.0, 0.0, 0.0)",4.371,5.16,-2.948,"(0.0, 0.0, 0.0, 0.0, 0.0, 0.0, 0.0, 0.0, 0.0)",0,0,0,,-0.0342,-0.4545,0.117,"(0.0, 0.0, 0.0, 0.0, 0.0, 0.0, 0.0, 0.0, 0.0)"
1677800809.1729164,4110,1677800809,164107084,imu1_frame,"$VNYMR,+064.272,-019.869,-059.436,-00.0703,-00.4448,+00.1486,+03.308,+06.251,-02.391,+01.208441,-01.491422,+03.406663*6A",0,0,0,,-0.3337851911072604,-0.3866163067035999,0.38262075383978206,0.7698809234676713,"(0.0, 0.0, 0.0, 0.0, 0.0, 0.0, 0.0, 0.0, 0.0)",1.208441,-1.491422,3.406663,"(0.0, 0.0, 0.0, 0.0, 0.0, 0.0, 0.0, 0.0, 0.0)",3.308,6.251,-2.391,"(0.0, 0.0, 0.0, 0.0, 0.0, 0.0, 0.0, 0.0, 0.0)",0,0,0,,-0.0703,-0.4448,0.1486,"(0.0, 0.0, 0.0, 0.0, 0.0, 0.0, 0.0, 0.0, 0.0)"
1677800809.2165523,4111,1677800809,189468860,imu1_frame,"$VNYMR,+068.644,-016.351,-059.277,-00.0924,-00.4444,+00.1456,+02.333,+07.932,-02.026,+00.884876,-01.175519,+03.687096*6E",0,0,0,,-0.3345783791750361,-0.3780802799176361,0.42701136669135864,0.7501825796713663,"(0.0, 0.0, 0.0, 0.0, 0.0, 0.0, 0.0, 0.0, 0.0)",0.884876,-1.175519,3.687096,"(0.0, 0.0, 0.0, 0.0, 0.0, 0.0, 0.0, 0.0, 0.0)",2.333,7.932,-2.026,"(0.0, 0.0, 0.0, 0.0, 0.0, 0.0, 0.0, 0.0, 0.0)",0,0,0,,-0.0924,-0.4444,0.1456,"(0.0, 0.0, 0.0, 0.0, 0.0, 0.0, 0.0, 0.0, 0.0)"
1677800809.2175817,4112,1677800809,214895009,imu1_frame,"$VNYMR,+073.105,-012.602,-059.571,-00.1295,-00.4336,+00.1567,+01.606,+09.151,-02.072,+00.370325,-01.293815,+03.787944*63",0,0,0,,-0.3399093370882365,-0.3705767997926035,0.4699618221171929,0.7254449419273639,"(0.0, 0.0, 0.0, 0.0, 0.0, 0.0, 0.0, 0.0, 0.0)",0.370325,-1.293815,3.787944,"(0.0, 0.0, 0.0, 0.0, 0.0, 0.0, 0.0, 0.0, 0.0)",1.606,9.151,-2.072,"(0.0, 0.0, 0.0, 0.0, 0.0, 0.0, 0.0, 0.0, 0.0)",0,0,0,,-0.1295,-0.4336,0.1567,"(0.0, 0.0, 0.0, 0.0, 0.0, 0.0, 0.0, 0.0, 0.0)"
1677800809.260654,4113,1677800809,240206956,imu1_frame,"$VNYMR,+077.526,-008.782,-060.329,-00.1609,-00.4136,+00.1695,+01.174,+11.338,-02.734,-00.050242,-01.235919,+03.827334*61",0,0,0,,-0.34921373995661376,-0.3652971279869301,0.5097311607325786,0.6962628209866105,"(0.0, 0.0, 0.0, 0.0, 0.0, 0.0, 0.0, 0.0, 0.0)",-0.050242,-1.235919,3.827334,"(0.0, 0.0, 0.0, 0.0, 0.0, 0.0, 0.0, 0.0, 0.0)",1.174,11.338,-2.734,"(0.0, 0.0, 0.0, 0.0, 0.0, 0.0, 0.0, 0.0, 0.0)",0,0,0,,-0.1609,-0.4136,0.1695,"(0.0, 0.0, 0.0, 0.0, 0.0, 0.0, 0.0, 0.0, 0.0)"
1677800809.3049994,4114,1677800809,265695333,imu1_frame,"$VNYMR,+081.555,-004.789,-060.987,-00.1865,-00.4006,+00.1573,+00.940,+13.720,-02.729,-00.052256,-00.949726,+03.794035*64",0,0,0,,-0.3604115683406713,-0.35839374917285255,0.5462419733675654,0.6657906040877658,"(0.0, 0.0, 0.0, 0.0, 0.0, 0.0, 0.0, 0.0, 0.0)",-0.052256,-0.949726,3.794035,"(0.0, 0.0, 0.0, 0.0, 0.0, 0.0, 0.0, 0.0, 0.0)",0.94,13.72,-2.729,"(0.0, 0.0, 0.0, 0.0, 0.0, 0.0, 0.0, 0.0, 0.0)",0,0,0,,-0.1865,-0.4006,0.1573,"(0.0, 0.0, 0.0, 0.0, 0.0, 0.0, 0.0, 0.0, 0.0)"
1677800809.3050256,4115,1677800809,289222240,imu1_frame,"$VNYMR,+085.141,-000.693,-061.458,-00.2183,-00.3926,+00.1652,+01.533,+15.055,-02.463,-00.175402,-00.658932,+03.653907*6D",0,0,0,,-0.3727838969557175,-0.349497097798797,0.5792261308681207,0.6351228496285377,"(0.0, 0.0, 0.0, 0.0, 0.0, 0.0, 0.0, 0.0, 0.0)",-0.175402,-0.658932,3.653907,"(0.0, 0.0, 0.0, 0.0, 0.0, 0.0, 0.0, 0.0, 0.0)",1.533,15.055,-2.463,"(0.0, 0.0, 0.0, 0.0, 0.0, 0.0, 0.0, 0.0, 0.0)",0,0,0,,-0.2183,-0.3926,0.1652,"(0.0, 0.0, 0.0, 0.0, 0.0, 0.0, 0.0, 0.0, 0.0)"
1677800809.34981,4116,1677800809,314603805,imu1_frame,"$VNYMR,+088.499,+003.350,-062.097,-00.2440,-00.3679,+00.1605,+02.546,+15.437,-00.039,-00.595115,-00.847004,+03.586782*63",0,0,0,,-0.38676180086742,-0.34179980084846584,0.6083568679586531,0.6029014237313406,"(0.0, 0.0, 0.0, 0.0, 0.0, 0.0, 0.0, 0.0, 0.0)",-0.595115,-0.847004,3.586782,"(0.0, 0.0, 0.0, 0.0, 0.0, 0.0, 0.0, 0.0, 0.0)",2.546,15.437,-0.039,"(0.0, 0.0, 0.0, 0.0, 0.0, 0.0, 0.0, 0.0, 0.0)",0,0,0,,-0.244,-0.3679,0.1605,"(0.0, 0.0, 0.0, 0.0, 0.0, 0.0, 0.0, 0.0, 0.0)"
1677800809.349837,4117,1677800809,339985132,imu1_frame,"$VNYMR,+092.284,+007.136,-063.190,-00.2676,-00.3642,+00.1715,+03.442,+15.479,+01.025,-01.058073,-01.305150,+03.555301*61",0,0,0,,-0.40052302637815557,-0.3403108570439618,0.6355789125414958,0.5655168183630411,"(0.0, 0.0, 0.0, 0.0, 0.0, 0.0, 0.0, 0.0, 0.0)",-1.058073,-1.30515,3.555301,"(0.0, 0.0, 0.0, 0.0, 0.0, 0.0, 0.0, 0.0, 0.0)",3.442,15.479,1.025,"(0.0, 0.0, 0.0, 0.0, 0.0, 0.0, 0.0, 0.0, 0.0)",0,0,0,,-0.2676,-0.3642,0.1715,"(0.0, 0.0, 0.0, 0.0, 0.0, 0.0, 0.0, 0.0, 0.0)"
1677800809.393718,4118,1677800809,365311384,imu1_frame,"$VNYMR,+096.706,+010.807,-064.775,-00.2875,-00.3481,+00.1740,+03.433,+15.062,+01.427,-01.688304,-01.731188,+03.690136*61",0,0,0,,-0.4137958609677558,-0.34563737377423404,0.6617300344038426,0.5209809524966278,"(0.0, 0.0, 0.0, 0.0, 0.0, 0.0, 0.0, 0.0, 0.0)",-1.688304,-1.731188,3.690136,"(0.0, 0.0, 0.0, 0.0, 0.0, 0.0, 0.0, 0.0, 0.0)",3.433,15.062,1.427,"(0.0, 0.0, 0.0, 0.0, 0.0, 0.0, 0.0, 0.0, 0.0)",0,0,0,,-0.2875,-0.3481,0.174,"(0.0, 0.0, 0.0, 0.0, 0.0, 0.0, 0.0, 0.0, 0.0)"
1677800809.3937395,4119,1677800809,388834476,imu1_frame,"$VNYMR,+101.896,+014.360,-066.825,-00.3076,-00.3316,+00.1609,+02.600,+14.162,+01.675,-02.311069,-02.430077,+03.685900*60",0,0,0,,-0.4252311643779799,-0.35854683493554834,0.6865070317251971,0.4683275770134692,"(0.0, 0.0, 0.0, 0.0, 0.0, 0.0, 0.0, 0.0, 0.0)",-2.311069,-2.430077,3.6859,"(0.0, 0.0, 0.0, 0.0, 0.0, 0.0, 0.0, 0.0, 0.0)",2.6,14.162,1.675,"(0.0, 0.0, 0.0, 0.0, 0.0, 0.0, 0.0, 0.0, 0.0)",0,0,0,,-0.3076,-0.3316,0.1609,"(0.0, 0.0, 0.0, 0.0, 0.0, 0.0, 0.0, 0.0, 0.0)"
1677800809.4377983,4120,1677800809,414261341,imu1_frame,"$VNYMR,+104.260,+015.720,-068.535,-00.3121,-00.3246,+00.1682,-11.777,+11.764,+02.318,-01.399913,+00.508257,-00.191222*69",0,0,0,,-0.4316126220432633,-0.37092801896846317,0.6935178871359382,0.44176451810843154,"(0.0, 0.0, 0.0, 0.0, 0.0, 0.0, 0.0, 0.0, 0.0)",-1.399913,0.508257,-0.191222,"(0.0, 0.0, 0.0, 0.0, 0.0, 0.0, 0.0, 0.0, 0.0)",-11.777,11.764,2.318,"(0.0, 0.0, 0.0, 0.0, 0.0, 0.0, 0.0, 0.0, 0.0)",0,0,0,,-0.3121,-0.3246,0.1682,"(0.0, 0.0, 0.0, 0.0, 0.0, 0.0, 0.0, 0.0, 0.0)"
1677800809.4418256,4121,1677800809,439590215,imu1_frame,"$VNYMR,+100.882,+016.717,-070.740,-00.3153,-00.3387,+00.1438,-04.836,+19.146,-04.360,-01.809785,+02.974207,+00.586577*60",0,0,0,,-0.45612828578579107,-0.36604588190219,0.675584598869261,0.4489352392263537,"(0.0, 0.0, 0.0, 0.0, 0.0, 0.0, 0.0, 0.0, 0.0)",-1.809785,2.974207,0.586577,"(0.0, 0.0, 0.0, 0.0, 0.0, 0.0, 0.0, 0.0, 0.0)",-4.836,19.146,-4.36,"(0.0, 0.0, 0.0, 0.0, 0.0, 0.0, 0.0, 0.0, 0.0)",0,0,0,,-0.3153,-0.3387,0.1438,"(0.0, 0.0, 0.0, 0.0, 0.0, 0.0, 0.0, 0.0, 0.0)"
1677800809.4846952,4122,1677800809,465076923,imu1_frame,"$VNYMR,+096.789,+019.475,-076.880,-00.3393,-00.3459,+00.0783,+02.932,+10.103,+06.427,-05.409606,+01.654079,+01.139919*60",0,0,0,,-0.5059138062970978,-0.370201300539738,0.6470517720679062,0.4339656921237572,"(0.0, 0.0, 0.0, 0.0, 0.0, 0.0, 0.0, 0.0, 0.0)",-5.409606,1.654079,1.139919,"(0.0, 0.0, 0.0, 0.0, 0.0, 0.0, 0.0, 0.0, 0.0)",2.932,10.103,6.427,"(0.0, 0.0, 0.0, 0.0, 0.0, 0.0, 0.0, 0.0, 0.0)",0,0,0,,-0.3393,-0.3459,0.0783,"(0.0, 0.0, 0.0, 0.0, 0.0, 0.0, 0.0, 0.0, 0.0)"
1677800809.528567,4123,1677800809,490383625,imu1_frame,"$VNYMR,+096.314,+020.913,-085.907,-00.3501,-00.3425,+00.0408,+02.748,+08.300,+09.366,-06.783942,-00.725943,+00.334197*68",0,0,0,,-0.5459678719003467,-0.4105877222138448,0.6186952854308297,0.38801153205222827,"(0.0, 0.0, 0.0, 0.0, 0.0, 0.0, 0.0, 0.0, 0.0)",-6.783942,-0.725943,0.334197,"(0.0, 0.0, 0.0, 0.0, 0.0, 0.0, 0.0, 0.0, 0.0)",2.748,8.3,9.366,"(0.0, 0.0, 0.0, 0.0, 0.0, 0.0, 0.0, 0.0, 0.0)",0,0,0,,-0.3501,-0.3425,0.0408,"(0.0, 0.0, 0.0, 0.0, 0.0, 0.0, 0.0, 0.0, 0.0)"
1677800809.5285926,4124,1677800809,513890743,imu1_frame,"$VNYMR,+099.837,+020.384,-096.411,-00.3395,-00.3744,-00.0143,+03.230,+10.180,+04.444,-08.152231,-02.782434,-00.957585*67",0,0,0,,-0.5626914811694727,-0.48550185544870683,0.5868233223810163,0.32141038204276107,"(0.0, 0.0, 0.0, 0.0, 0.0, 0.0, 0.0, 0.0, 0.0)",-8.152231,-2.782434,-0.957585,"(0.0, 0.0, 0.0, 0.0, 0.0, 0.0, 0.0, 0.0, 0.0)",3.23,10.18,4.444,"(0.0, 0.0, 0.0, 0.0, 0.0, 0.0, 0.0, 0.0, 0.0)",0,0,0,,-0.3395,-0.3744,-0.0143,"(0.0, 0.0, 0.0, 0.0, 0.0, 0.0, 0.0, 0.0, 0.0)"
1677800809.5766768,4125,1677800809,539464950,imu1_frame,"$VNYMR,+104.188,+019.300,-105.443,-00.3267,-00.3840,-00.0665,+05.629,+07.149,+05.390,-09.968064,-03.309053,-01.476690*6E",0,0,0,,-0.5620459498928285,-0.556562498318102,0.5530850208524274,0.2616094329026592,"(0.0, 0.0, 0.0, 0.0, 0.0, 0.0, 0.0, 0.0, 0.0)",-9.968064,-3.309053,-1.47669,"(0.0, 0.0, 0.0, 0.0, 0.0, 0.0, 0.0, 0.0, 0.0)",5.629,7.149,5.39,"(0.0, 0.0, 0.0, 0.0, 0.0, 0.0, 0.0, 0.0, 0.0)",0,0,0,,-0.3267,-0.384,-0.0665,"(0.0, 0.0, 0.0, 0.0, 0.0, 0.0, 0.0, 0.0, 0.0)"
1677800809.5766993,4126,1677800809,564674139,imu1_frame,"$VNYMR,+108.081,+016.048,-121.732,-00.3009,-00.3714,-00.1688,+04.807,+14.442,+03.416,-08.981441,-00.319900,-03.012195*61",0,0,0,,-0.5629075286927856,-0.6601973443944912,0.4618146289976449,0.18439584875807322,"(0.0, 0.0, 0.0, 0.0, 0.0, 0.0, 0.0, 0.0, 0.0)",-8.981441,-0.3199,-3.012195,"(0.0, 0.0, 0.0, 0.0, 0.0, 0.0, 0.0, 0.0, 0.0)",4.807,14.442,3.416,"(0.0, 0.0, 0.0, 0.0, 0.0, 0.0, 0.0, 0.0, 0.0)",0,0,0,,-0.3009,-0.3714,-0.1688,"(0.0, 0.0, 0.0, 0.0, 0.0, 0.0, 0.0, 0.0, 0.0)"
1677800809.6212888,4127,1677800809,590036392,imu1_frame,"$VNYMR,+109.658,+013.848,-130.016,-00.2801,-00.3600,-00.2274,+01.558,+14.310,+11.546,-02.568554,-00.107940,-00.655525*6E",0,0,0,,-0.5599106676844458,-0.706155853661932,0.40578007684083894,0.15227108652396654,"(0.0, 0.0, 0.0, 0.0, 0.0, 0.0, 0.0, 0.0, 0.0)",-2.568554,-0.10794,-0.655525,"(0.0, 0.0, 0.0, 0.0, 0.0, 0.0, 0.0, 0.0, 0.0)",1.558,14.31,11.546,"(0.0, 0.0, 0.0, 0.0, 0.0, 0.0, 0.0, 0.0, 0.0)",0,0,0,,-0.2801,-0.36,-0.2274,"(0.0, 0.0, 0.0, 0.0, 0.0, 0.0, 0.0, 0.0, 0.0)"
1677800809.6213093,4128,1677800809,615546703,imu1_frame,"$VNYMR,+111.306,+014.611,-129.468,-00.2791,-00.3694,-00.2195,-00.476,+07.799,+10.562,+00.342142,-01.834635,-00.578168*69",0,0,0,,-0.5508986049588381,-0.7099691091046655,0.41441892987323625,0.1439150504091051,"(0.0, 0.0, 0.0, 0.0, 0.0, 0.0, 0.0, 0.0, 0.0)",0.342142,-1.834635,-0.578168,"(0.0, 0.0, 0.0, 0.0, 0.0, 0.0, 0.0, 0.0, 0.0)",-0.476,7.799,10.562,"(0.0, 0.0, 0.0, 0.0, 0.0, 0.0, 0.0, 0.0, 0.0)",0,0,0,,-0.2791,-0.3694,-0.2195,"(0.0, 0.0, 0.0, 0.0, 0.0, 0.0, 0.0, 0.0, 0.0)"
1677800809.670377,4129,1677800809,638939380,imu1_frame,"$VNYMR,+113.715,+015.270,-126.940,-00.2814,-00.3776,-00.2158,+00.263,+10.481,+08.715,+01.944232,-01.654747,-00.664121*6C",0,0,0,,-0.5345073214805407,-0.7100580750669782,0.4356739002332273,0.14250510858016197,"(0.0, 0.0, 0.0, 0.0, 0.0, 0.0, 0.0, 0.0, 0.0)",1.944232,-1.654747,-0.664121,"(0.0, 0.0, 0.0, 0.0, 0.0, 0.0, 0.0, 0.0, 0.0)",0.263,10.481,8.715,"(0.0, 0.0, 0.0, 0.0, 0.0, 0.0, 0.0, 0.0, 0.0)",0,0,0,,-0.2814,-0.3776,-0.2158,"(0.0, 0.0, 0.0, 0.0, 0.0, 0.0, 0.0, 0.0, 0.0)"
1677800809.6703975,4130,1677800809,664569377,imu1_frame,"$VNYMR,+116.308,+016.596,-122.801,-00.2852,-00.3808,-00.1649,+01.996,+08.484,+03.484,+02.461633,-01.981075,+00.011845*65",0,0,0,,-0.5170945744270372,-0.7015634224070662,0.46922885858710683,0.14228929582946986,"(0.0, 0.0, 0.0, 0.0, 0.0, 0.0, 0.0, 0.0, 0.0)",2.461633,-1.981075,0.011845,"(0.0, 0.0, 0.0, 0.0, 0.0, 0.0, 0.0, 0.0, 0.0)",1.996,8.484,3.484,"(0.0, 0.0, 0.0, 0.0, 0.0, 0.0, 0.0, 0.0, 0.0)",0,0,0,,-0.2852,-0.3808,-0.1649,"(0.0, 0.0, 0.0, 0.0, 0.0, 0.0, 0.0, 0.0, 0.0)"
1677800809.7132564,4131,1677800809,689799070,imu1_frame,"$VNYMR,+118.988,+017.435,-120.020,-00.2831,-00.3843,-00.1507,+03.167,+09.521,+04.372,+00.686626,-01.927795,-00.542376*6E",0,0,0,,-0.4998560632978461,-0.6991441027449316,0.4923192642616655,0.13770686844967672,"(0.0, 0.0, 0.0, 0.0, 0.0, 0.0, 0.0, 0.0, 0.0)",0.686626,-1.927795,-0.542376,"(0.0, 0.0, 0.0, 0.0, 0.0, 0.0, 0.0, 0.0, 0.0)",3.167,9.521,4.372,"(0.0, 0.0, 0.0, 0.0, 0.0, 0.0, 0.0, 0.0, 0.0)",0,0,0,,-0.2831,-0.3843,-0.1507,"(0.0, 0.0, 0.0, 0.0, 0.0, 0.0, 0.0, 0.0, 0.0)"
1677800809.7171957,4132,1677800809,715095520,imu1_frame,"$VNYMR,+122.025,+018.711,-118.355,-00.2891,-00.3947,-00.1165,+00.550,+08.926,+00.725,+00.150120,-01.887157,-00.073753*67",0,0,0,,-0.48349296401862496,-0.7008214688816488,0.5098829815957008,0.12289494529121657,"(0.0, 0.0, 0.0, 0.0, 0.0, 0.0, 0.0, 0.0, 0.0)",0.15012,-1.887157,-0.073753,"(0.0, 0.0, 0.0, 0.0, 0.0, 0.0, 0.0, 0.0, 0.0)",0.55,8.926,0.725,"(0.0, 0.0, 0.0, 0.0, 0.0, 0.0, 0.0, 0.0, 0.0)",0,0,0,,-0.2891,-0.3947,-0.1165,"(0.0, 0.0, 0.0, 0.0, 0.0, 0.0, 0.0, 0.0, 0.0)"
1677800809.7698917,4133,1677800809,740558624,imu1_frame,"$VNYMR,+124.559,+019.582,-118.366,-00.2912,-00.3947,-00.1295,-00.606,+06.739,+03.712,-01.140785,-01.532428,-00.289649*63",0,0,0,,-0.4707832545803692,-0.7086430006625944,0.51482829649857,0.10554643500853089,"(0.0, 0.0, 0.0, 0.0, 0.0, 0.0, 0.0, 0.0, 0.0)",-1.140785,-1.532428,-0.289649,"(0.0, 0.0, 0.0, 0.0, 0.0, 0.0, 0.0, 0.0, 0.0)",-0.606,6.739,3.712,"(0.0, 0.0, 0.0, 0.0, 0.0, 0.0, 0.0, 0.0, 0.0)",0,0,0,,-0.2912,-0.3947,-0.1295,"(0.0, 0.0, 0.0, 0.0, 0.0, 0.0, 0.0, 0.0, 0.0)"
1677800809.7699118,4134,1677800809,764113903,imu1_frame,"$VNYMR,+127.599,+018.983,-119.792,-00.2823,-00.4041,-00.1289,+00.250,+03.548,+08.503,-02.136514,-01.881210,-02.263163*68",0,0,0,,-0.4509433916122349,-0.7290856036199534,0.5068618099508655,0.0904176186852719,"(0.0, 0.0, 0.0, 0.0, 0.0, 0.0, 0.0, 0.0, 0.0)",-2.136514,-1.88121,-2.263163,"(0.0, 0.0, 0.0, 0.0, 0.0, 0.0, 0.0, 0.0, 0.0)",0.25,3.548,8.503,"(0.0, 0.0, 0.0, 0.0, 0.0, 0.0, 0.0, 0.0, 0.0)",0,0,0,,-0.2823,-0.4041,-0.1289,"(0.0, 0.0, 0.0, 0.0, 0.0, 0.0, 0.0, 0.0, 0.0)"
1677800809.8139696,4135,1677800809,789418697,imu1_frame,"$VNYMR,+132.787,+016.077,-122.195,-00.2508,-00.4101,-00.1328,+00.023,+08.401,+06.137,-02.745040,-01.520790,-03.997598*6F",0,0,0,,-0.40906028584251314,-0.7672366335972388,0.48754719640714383,0.07946925121297825,"(0.0, 0.0, 0.0, 0.0, 0.0, 0.0, 0.0, 0.0, 0.0)",-2.74504,-1.52079,-3.997598,"(0.0, 0.0, 0.0, 0.0, 0.0, 0.0, 0.0, 0.0, 0.0)",0.023,8.401,6.137,"(0.0, 0.0, 0.0, 0.0, 0.0, 0.0, 0.0, 0.0, 0.0)",0,0,0,,-0.2508,-0.4101,-0.1328,"(0.0, 0.0, 0.0, 0.0, 0.0, 0.0, 0.0, 0.0, 0.0)"
1677800809.8170755,4136,1677800809,814902305,imu1_frame,"$VNYMR,+138.284,+012.374,-123.928,-00.2156,-00.4257,-00.1646,-00.303,+08.640,+08.840,-02.036910,-02.395080,-04.563662*69",0,0,0,,-0.3597774146845243,-0.8019679032019951,0.47053532220385785,0.0774868032327243,"(0.0, 0.0, 0.0, 0.0, 0.0, 0.0, 0.0, 0.0, 0.0)",-2.03691,-2.39508,-4.563662,"(0.0, 0.0, 0.0, 0.0, 0.0, 0.0, 0.0, 0.0, 0.0)",-0.303,8.64,8.84,"(0.0, 0.0, 0.0, 0.0, 0.0, 0.0, 0.0, 0.0, 0.0)",0,0,0,,-0.2156,-0.4257,-0.1646,"(0.0, 0.0, 0.0, 0.0, 0.0, 0.0, 0.0, 0.0, 0.0)"
1677800809.8617637,4137,1677800809,840182781,imu1_frame,"$VNYMR,+146.318,+008.400,-125.698,-00.1660,-00.4380,-00.1710,-02.082,+08.032,+08.355,-02.476785,-03.194948,-06.106820*65",0,0,0,,-0.2890876390055512,-0.8396754748622149,0.4544732049931958,0.06948049965510356,"(0.0, 0.0, 0.0, 0.0, 0.0, 0.0, 0.0, 0.0, 0.0)",-2.476785,-3.194948,-6.10682,"(0.0, 0.0, 0.0, 0.0, 0.0, 0.0, 0.0, 0.0, 0.0)",-2.082,8.032,8.355,"(0.0, 0.0, 0.0, 0.0, 0.0, 0.0, 0.0, 0.0, 0.0)",0,0,0,,-0.166,-0.438,-0.171,"(0.0, 0.0, 0.0, 0.0, 0.0, 0.0, 0.0, 0.0, 0.0)"
1677800809.9047892,4138,1677800809,865578651,imu1_frame,"$VNYMR,+153.818,+004.403,-128.635,-00.1129,-00.4407,-00.1990,-01.671,+11.891,+05.918,-02.515002,-01.953563,-04.671429*6D",0,0,0,,-0.22018709409602996,-0.8733697750162528,0.42965046448319416,0.06436892146821685,"(0.0, 0.0, 0.0, 0.0, 0.0, 0.0, 0.0, 0.0, 0.0)",-2.515002,-1.953563,-4.671429,"(0.0, 0.0, 0.0, 0.0, 0.0, 0.0, 0.0, 0.0, 0.0)",-1.671,11.891,5.918,"(0.0, 0.0, 0.0, 0.0, 0.0, 0.0, 0.0, 0.0, 0.0)",0,0,0,,-0.1129,-0.4407,-0.199,"(0.0, 0.0, 0.0, 0.0, 0.0, 0.0, 0.0, 0.0, 0.0)"
1677800809.9048164,4139,1677800809,889194488,imu1_frame,"$VNYMR,+159.103,+001.495,-131.699,-00.0835,-00.4480,-00.2133,-01.467,+07.754,+06.798,-02.425000,-01.353315,-03.684858*63",0,0,0,,-0.1707136307937475,-0.8962992244469908,0.40447530698638945,0.06248425845926964,"(0.0, 0.0, 0.0, 0.0, 0.0, 0.0, 0.0, 0.0, 0.0)",-2.425,-1.353315,-3.684858,"(0.0, 0.0, 0.0, 0.0, 0.0, 0.0, 0.0, 0.0, 0.0)",-1.467,7.754,6.798,"(0.0, 0.0, 0.0, 0.0, 0.0, 0.0, 0.0, 0.0, 0.0)",0,0,0,,-0.0835,-0.448,-0.2133,"(0.0, 0.0, 0.0, 0.0, 0.0, 0.0, 0.0, 0.0, 0.0)"
1677800809.949701,4140,1677800809,914460182,imu1_frame,"$VNYMR,+164.128,-001.891,-135.619,-00.0447,-00.4387,-00.2349,-02.108,+06.882,+06.895,-02.999951,-00.761252,-04.322362*65",0,0,0,,-0.12165064132759887,-0.9178010897161215,0.37190964619793865,0.06727180869731152,"(0.0, 0.0, 0.0, 0.0, 0.0, 0.0, 0.0, 0.0, 0.0)",-2.999951,-0.761252,-4.322362,"(0.0, 0.0, 0.0, 0.0, 0.0, 0.0, 0.0, 0.0, 0.0)",-2.108,6.882,6.895,"(0.0, 0.0, 0.0, 0.0, 0.0, 0.0, 0.0, 0.0, 0.0)",0,0,0,,-0.0447,-0.4387,-0.2349,"(0.0, 0.0, 0.0, 0.0, 0.0, 0.0, 0.0, 0.0, 0.0)"
1677800809.9497278,4141,1677800809,939996004,imu1_frame,"$VNYMR,+168.731,-005.670,-140.326,+00.0019,-00.4168,-00.2764,-01.792,+07.964,+07.147,-02.924809,+00.190084,-03.724021*6D",0,0,0,,-0.07554026563023536,-0.936619165566208,0.33272464045323685,0.07957713615001392,"(0.0, 0.0, 0.0, 0.0, 0.0, 0.0, 0.0, 0.0, 0.0)",-2.924809,0.190084,-3.724021,"(0.0, 0.0, 0.0, 0.0, 0.0, 0.0, 0.0, 0.0, 0.0)",-1.792,7.964,7.147,"(0.0, 0.0, 0.0, 0.0, 0.0, 0.0, 0.0, 0.0, 0.0)",0,0,0,,0.0019,-0.4168,-0.2764,"(0.0, 0.0, 0.0, 0.0, 0.0, 0.0, 0.0, 0.0, 0.0)"
1677800809.9926717,4142,1677800809,965272665,imu1_frame,"$VNYMR,+171.527,-008.804,-144.009,+00.0279,-00.3888,-00.2863,-01.427,+07.933,+08.186,-01.950088,+00.713082,-02.099890*63",0,0,0,,-0.0464047076191762,-0.9474358421337994,0.3017965828216453,0.0955549619233615,"(0.0, 0.0, 0.0, 0.0, 0.0, 0.0, 0.0, 0.0, 0.0)",-1.950088,0.713082,-2.09989,"(0.0, 0.0, 0.0, 0.0, 0.0, 0.0, 0.0, 0.0, 0.0)",-1.427,7.933,8.186,"(0.0, 0.0, 0.0, 0.0, 0.0, 0.0, 0.0, 0.0, 0.0)",0,0,0,,0.0279,-0.3888,-0.2863,"(0.0, 0.0, 0.0, 0.0, 0.0, 0.0, 0.0, 0.0, 0.0)"
1677800809.9926827,4143,1677800809,988842487,imu1_frame,"$VNYMR,+172.117,-010.566,-146.398,+00.0468,-00.3833,-00.2970,+01.457,+04.518,+08.235,-01.441405,+00.727783,-00.822215*67",0,0,0,,-0.0389730272632512,-0.9528225762187476,0.28108098423598565,0.10772057229116652,"(0.0, 0.0, 0.0, 0.0, 0.0, 0.0, 0.0, 0.0, 0.0)",-1.441405,0.727783,-0.822215,"(0.0, 0.0, 0.0, 0.0, 0.0, 0.0, 0.0, 0.0, 0.0)",1.457,4.518,8.235,"(0.0, 0.0, 0.0, 0.0, 0.0, 0.0, 0.0, 0.0, 0.0)",0,0,0,,0.0468,-0.3833,-0.297,"(0.0, 0.0, 0.0, 0.0, 0.0, 0.0, 0.0, 0.0, 0.0)"
1677800810.037635,4144,1677800810,14155626,imu1_frame,"$VNYMR,+172.669,-011.601,-149.324,+00.0571,-00.3776,-00.3193,+00.954,+04.632,+05.749,-02.204805,+00.660311,-00.588204*6E",0,0,0,,-0.034660352168246214,-0.9591907315297116,0.2563889230534384,0.11408996744047142,"(0.0, 0.0, 0.0, 0.0, 0.0, 0.0, 0.0, 0.0, 0.0)",-2.204805,0.660311,-0.588204,"(0.0, 0.0, 0.0, 0.0, 0.0, 0.0, 0.0, 0.0, 0.0)",0.954,4.632,5.749,"(0.0, 0.0, 0.0, 0.0, 0.0, 0.0, 0.0, 0.0, 0.0)",0,0,0,,0.0571,-0.3776,-0.3193,"(0.0, 0.0, 0.0, 0.0, 0.0, 0.0, 0.0, 0.0, 0.0)"
1677800810.0418463,4145,1677800810,39551496,imu1_frame,"$VNYMR,+172.283,-012.695,-152.353,+00.0584,-00.3577,-00.3309,-00.243,+03.696,+06.891,-02.172996,+00.885253,+00.033822*6F",0,0,0,,-0.03858700894440226,-0.9646735832860334,0.22970446505990397,0.12309256347299265,"(0.0, 0.0, 0.0, 0.0, 0.0, 0.0, 0.0, 0.0, 0.0)",-2.172996,0.885253,0.033822,"(0.0, 0.0, 0.0, 0.0, 0.0, 0.0, 0.0, 0.0, 0.0)",-0.243,3.696,6.891,"(0.0, 0.0, 0.0, 0.0, 0.0, 0.0, 0.0, 0.0, 0.0)",0,0,0,,0.0584,-0.3577,-0.3309,"(0.0, 0.0, 0.0, 0.0, 0.0, 0.0, 0.0, 0.0, 0.0)"
1677800810.0855114,4146,1677800810,65032958,imu1_frame,"$VNYMR,+171.548,-013.396,-155.337,+00.0630,-00.3448,-00.3409,+01.343,+03.354,+06.076,-02.342972,+00.625446,+00.342873*68",0,0,0,,-0.046657281011409514,-0.9694581098917946,0.20313645923420998,0.1292658122762535,"(0.0, 0.0, 0.0, 0.0, 0.0, 0.0, 0.0, 0.0, 0.0)",-2.342972,0.625446,0.342873,"(0.0, 0.0, 0.0, 0.0, 0.0, 0.0, 0.0, 0.0, 0.0)",1.343,3.354,6.076,"(0.0, 0.0, 0.0, 0.0, 0.0, 0.0, 0.0, 0.0, 0.0)",0,0,0,,0.063,-0.3448,-0.3409,"(0.0, 0.0, 0.0, 0.0, 0.0, 0.0, 0.0, 0.0, 0.0)"
1677800810.12953,4147,1677800810,90362787,imu1_frame,"$VNYMR,+170.365,-013.496,-159.089,+00.0588,-00.3285,-00.3683,+01.635,+03.362,+05.349,-03.086343,+00.449610,+01.006962*6F",0,0,0,,-0.0607675482220245,-0.9749244968846763,0.1698737278348957,0.1302783445117431,"(0.0, 0.0, 0.0, 0.0, 0.0, 0.0, 0.0, 0.0, 0.0)",-3.086343,0.44961,1.006962,"(0.0, 0.0, 0.0, 0.0, 0.0, 0.0, 0.0, 0.0, 0.0)",1.635,3.362,5.349,"(0.0, 0.0, 0.0, 0.0, 0.0, 0.0, 0.0, 0.0, 0.0)",0,0,0,,0.0588,-0.3285,-0.3683,"(0.0, 0.0, 0.0, 0.0, 0.0, 0.0, 0.0, 0.0, 0.0)"
1677800810.129552,4148,1677800810,115776062,imu1_frame,"$VNYMR,+168.878,-013.340,-162.967,+00.0569,-00.3028,-00.4032,+01.732,+03.434,+07.762,-02.740401,-00.124924,+01.006726*63",0,0,0,,-0.07806794252720553,-0.9793233782254868,0.13526806381809273,0.12858331198679437,"(0.0, 0.0, 0.0, 0.0, 0.0, 0.0, 0.0, 0.0, 0.0)",-2.740401,-0.124924,1.006726,"(0.0, 0.0, 0.0, 0.0, 0.0, 0.0, 0.0, 0.0, 0.0)",1.732,3.434,7.762,"(0.0, 0.0, 0.0, 0.0, 0.0, 0.0, 0.0, 0.0, 0.0)",0,0,0,,0.0569,-0.3028,-0.4032,"(0.0, 0.0, 0.0, 0.0, 0.0, 0.0, 0.0, 0.0, 0.0)"
1677800810.1773365,4149,1677800810,139339208,imu1_frame,"$VNYMR,+167.718,-011.581,-166.459,+00.0410,-00.2817,-00.4047,+01.121,+03.777,+04.965,-02.509365,-01.239635,+01.139841*62",0,0,0,,-0.09386142588938363,-0.9835625209169684,0.10590044815378018,0.11216013221416249,"(0.0, 0.0, 0.0, 0.0, 0.0, 0.0, 0.0, 0.0, 0.0)",-2.509365,-1.239635,1.139841,"(0.0, 0.0, 0.0, 0.0, 0.0, 0.0, 0.0, 0.0, 0.0)",1.121,3.777,4.965,"(0.0, 0.0, 0.0, 0.0, 0.0, 0.0, 0.0, 0.0, 0.0)",0,0,0,,0.041,-0.2817,-0.4047,"(0.0, 0.0, 0.0, 0.0, 0.0, 0.0, 0.0, 0.0, 0.0)"
1677800810.177358,4150,1677800810,164723873,imu1_frame,"$VNYMR,+166.251,-009.822,-170.276,+00.0209,-00.2628,-00.4268,-00.395,+03.946,+03.768,-03.112110,-00.607197,+01.333228*6E",0,0,0,,-0.11162280877951919,-0.9864751798026667,0.07362785168180344,0.09479455496065994,"(0.0, 0.0, 0.0, 0.0, 0.0, 0.0, 0.0, 0.0, 0.0)",-3.11211,-0.607197,1.333228,"(0.0, 0.0, 0.0, 0.0, 0.0, 0.0, 0.0, 0.0, 0.0)",-0.395,3.946,3.768,"(0.0, 0.0, 0.0, 0.0, 0.0, 0.0, 0.0, 0.0, 0.0)",0,0,0,,0.0209,-0.2628,-0.4268,"(0.0, 0.0, 0.0, 0.0, 0.0, 0.0, 0.0, 0.0, 0.0)"
1677800810.221512,4151,1677800810,190019607,imu1_frame,"$VNYMR,+164.216,-009.196,-174.541,+00.0111,-00.2359,-00.4547,-00.672,+05.937,+08.615,-03.152292,-00.327227,+01.615328*63",0,0,0,,-0.13292775461829448,-0.9867448176593845,0.0360233566737381,0.08583236364241247,"(0.0, 0.0, 0.0, 0.0, 0.0, 0.0, 0.0, 0.0, 0.0)",-3.152292,-0.327227,1.615328,"(0.0, 0.0, 0.0, 0.0, 0.0, 0.0, 0.0, 0.0, 0.0)",-0.672,5.937,8.615,"(0.0, 0.0, 0.0, 0.0, 0.0, 0.0, 0.0, 0.0, 0.0)",0,0,0,,0.0111,-0.2359,-0.4547,"(0.0, 0.0, 0.0, 0.0, 0.0, 0.0, 0.0, 0.0, 0.0)"
1677800810.2215393,4152,1677800810,215468645,imu1_frame,"$VNYMR,+161.446,-007.434,-177.877,-00.0114,-00.1981,-00.4593,-02.301,+04.146,+10.699,-02.163736,-01.714871,+01.956032*6E",0,0,0,,-0.15965566225076663,-0.9848690448383455,0.00779580442802455,0.06694967859365855,"(0.0, 0.0, 0.0, 0.0, 0.0, 0.0, 0.0, 0.0, 0.0)",-2.163736,-1.714871,1.956032,"(0.0, 0.0, 0.0, 0.0, 0.0, 0.0, 0.0, 0.0, 0.0)",-2.301,4.146,10.699,"(0.0, 0.0, 0.0, 0.0, 0.0, 0.0, 0.0, 0.0, 0.0)",0,0,0,,-0.0114,-0.1981,-0.4593,"(0.0, 0.0, 0.0, 0.0, 0.0, 0.0, 0.0, 0.0, 0.0)"
1677800810.2651985,4153,1677800810,238935232,imu1_frame,"$VNYMR,+160.143,-004.690,+179.994,-00.0430,-00.1799,-00.4771,-05.352,+05.284,+07.321,-01.275122,-01.625882,+00.413646*60",0,0,0,,0.1722768116391394,0.9841984219363636,0.00710632610040281,-0.040294746044351175,"(0.0, 0.0, 0.0, 0.0, 0.0, 0.0, 0.0, 0.0, 0.0)",-1.275122,-1.625882,0.413646,"(0.0, 0.0, 0.0, 0.0, 0.0, 0.0, 0.0, 0.0, 0.0)",-5.352,5.284,7.321,"(0.0, 0.0, 0.0, 0.0, 0.0, 0.0, 0.0, 0.0, 0.0)",0,0,0,,-0.043,-0.1799,-0.4771,"(0.0, 0.0, 0.0, 0.0, 0.0, 0.0, 0.0, 0.0, 0.0)"
1677800810.2666895,4154,1677800810,264358997,imu1_frame,"$VNYMR,+159.887,-003.659,+179.265,-00.0532,-00.1892,-00.4727,-06.748,+07.994,+09.486,-00.164299,-00.319553,+00.320291*6A",0,0,0,,0.1747282460995073,0.9840781241933879,0.01188694578987057,-0.03031478218297861,"(0.0, 0.0, 0.0, 0.0, 0.0, 0.0, 0.0, 0.0, 0.0)",-0.164299,-0.319553,0.320291,"(0.0, 0.0, 0.0, 0.0, 0.0, 0.0, 0.0, 0.0, 0.0)",-6.748,7.994,9.486,"(0.0, 0.0, 0.0, 0.0, 0.0, 0.0, 0.0, 0.0, 0.0)",0,0,0,,-0.0532,-0.1892,-0.4727,"(0.0, 0.0, 0.0, 0.0, 0.0, 0.0, 0.0, 0.0, 0.0)"
1677800810.3094392,4155,1677800810,289760828,imu1_frame,"$VNYMR,+157.962,-003.666,-179.532,-00.0611,-00.1904,-00.4809,-05.384,+06.251,+14.644,+01.626311,-00.092710,+02.016900*6F",0,0,0,,-0.19090688260623365,-0.9810783787093291,-0.0021069456255075813,0.03217666519040349,"(0.0, 0.0, 0.0, 0.0, 0.0, 0.0, 0.0, 0.0, 0.0)",1.626311,-0.09271,2.0169,"(0.0, 0.0, 0.0, 0.0, 0.0, 0.0, 0.0, 0.0, 0.0)",-5.384,6.251,14.644,"(0.0, 0.0, 0.0, 0.0, 0.0, 0.0, 0.0, 0.0, 0.0)",0,0,0,,-0.0611,-0.1904,-0.4809,"(0.0, 0.0, 0.0, 0.0, 0.0, 0.0, 0.0, 0.0, 0.0)"
1677800810.3532672,4156,1677800810,315083742,imu1_frame,"$VNYMR,+154.744,-002.789,-175.816,-00.0793,-00.2161,-00.4679,-05.351,+01.462,+11.542,+02.398772,-00.673710,+02.411049*6F",0,0,0,,-0.21754283884401177,-0.975065067337044,0.030293751011263016,0.03170987821423554,"(0.0, 0.0, 0.0, 0.0, 0.0, 0.0, 0.0, 0.0, 0.0)",2.398772,-0.67371,2.411049,"(0.0, 0.0, 0.0, 0.0, 0.0, 0.0, 0.0, 0.0, 0.0)",-5.351,1.462,11.542,"(0.0, 0.0, 0.0, 0.0, 0.0, 0.0, 0.0, 0.0, 0.0)",0,0,0,,-0.0793,-0.2161,-0.4679,"(0.0, 0.0, 0.0, 0.0, 0.0, 0.0, 0.0, 0.0, 0.0)"
1677800810.3532941,4157,1677800810,340523719,imu1_frame,"$VNYMR,+152.214,-001.675,-173.689,-00.0987,-00.2206,-00.4450,-05.205,-01.139,+10.736,+00.715099,-00.610515,+01.308506*6A",0,0,0,,-0.23893873515072456,-0.9693636392234762,0.04992572766284405,0.02738316112733131,"(0.0, 0.0, 0.0, 0.0, 0.0, 0.0, 0.0, 0.0, 0.0)",0.715099,-0.610515,1.308506,"(0.0, 0.0, 0.0, 0.0, 0.0, 0.0, 0.0, 0.0, 0.0)",-5.205,-1.139,10.736,"(0.0, 0.0, 0.0, 0.0, 0.0, 0.0, 0.0, 0.0, 0.0)",0,0,0,,-0.0987,-0.2206,-0.445,"(0.0, 0.0, 0.0, 0.0, 0.0, 0.0, 0.0, 0.0, 0.0)"
1677800810.398204,4158,1677800810,364133358,imu1_frame,"$VNYMR,+151.262,-001.151,-173.751,-00.1053,-00.2171,-00.4583,-04.122,+01.686,+12.136,-00.375853,-00.271524,+00.632742*62",0,0,0,,-0.24725404623264216,-0.9673645999143389,0.050309129439603605,0.023241319867572163,"(0.0, 0.0, 0.0, 0.0, 0.0, 0.0, 0.0, 0.0, 0.0)",-0.375853,-0.271524,0.632742,"(0.0, 0.0, 0.0, 0.0, 0.0, 0.0, 0.0, 0.0, 0.0)",-4.122,1.686,12.136,"(0.0, 0.0, 0.0, 0.0, 0.0, 0.0, 0.0, 0.0, 0.0)",0,0,0,,-0.1053,-0.2171,-0.4583,"(0.0, 0.0, 0.0, 0.0, 0.0, 0.0, 0.0, 0.0, 0.0)"
1677800810.3982298,4159,1677800810,389393091,imu1_frame,"$VNYMR,+150.170,-000.436,-174.321,-00.1166,-00.2217,-00.4553,-02.280,+00.488,+11.580,-00.555581,-00.575170,+01.006445*65",0,0,0,,-0.2568857741986681,-0.9651638443058662,0.046890882732967445,0.01642247775446216,"(0.0, 0.0, 0.0, 0.0, 0.0, 0.0, 0.0, 0.0, 0.0)",-0.555581,-0.57517,1.006445,"(0.0, 0.0, 0.0, 0.0, 0.0, 0.0, 0.0, 0.0, 0.0)",-2.28,0.488,11.58,"(0.0, 0.0, 0.0, 0.0, 0.0, 0.0, 0.0, 0.0, 0.0)",0,0,0,,-0.1166,-0.2217,-0.4553,"(0.0, 0.0, 0.0, 0.0, 0.0, 0.0, 0.0, 0.0, 0.0)"
1677800810.4406424,4160,1677800810,414878368,imu1_frame,"$VNYMR,+149.003,+000.597,-175.707,-00.1289,-00.1993,-00.4615,-03.242,-00.643,+11.095,-01.206134,-00.701047,+00.764086*68",0,0,0,,-0.2672100633200264,-0.9628960793315703,0.037483436299953085,0.004991439826880087,"(0.0, 0.0, 0.0, 0.0, 0.0, 0.0, 0.0, 0.0, 0.0)",-1.206134,-0.701047,0.764086,"(0.0, 0.0, 0.0, 0.0, 0.0, 0.0, 0.0, 0.0, 0.0)",-3.242,-0.643,11.095,"(0.0, 0.0, 0.0, 0.0, 0.0, 0.0, 0.0, 0.0, 0.0)",0,0,0,,-0.1289,-0.1993,-0.4615,"(0.0, 0.0, 0.0, 0.0, 0.0, 0.0, 0.0, 0.0, 0.0)"
1677800810.442405,4161,1677800810,440196037,imu1_frame,"$VNYMR,+148.417,+001.352,-177.968,-00.1402,-00.1934,-00.4624,-02.559,+01.306,+11.078,-01.725531,-00.501737,+00.438042*60",0,0,0,,-0.2722770781470217,-0.9619831982169736,0.02027142314527017,-0.006525984035270149,"(0.0, 0.0, 0.0, 0.0, 0.0, 0.0, 0.0, 0.0, 0.0)",-1.725531,-0.501737,0.438042,"(0.0, 0.0, 0.0, 0.0, 0.0, 0.0, 0.0, 0.0, 0.0)",-2.559,1.306,11.078,"(0.0, 0.0, 0.0, 0.0, 0.0, 0.0, 0.0, 0.0, 0.0)",0,0,0,,-0.1402,-0.1934,-0.4624,"(0.0, 0.0, 0.0, 0.0, 0.0, 0.0, 0.0, 0.0, 0.0)"
1677800810.4853356,4162,1677800810,465548992,imu1_frame,"$VNYMR,+147.480,+002.327,+179.447,-00.1504,-00.1745,-00.4608,-03.063,+00.782,+10.521,-01.900998,-00.905816,+00.805440*63",0,0,0,,0.2798415100708085,0.959819329975291,-0.001053573377758076,0.020844016652531425,"(0.0, 0.0, 0.0, 0.0, 0.0, 0.0, 0.0, 0.0, 0.0)",-1.900998,-0.905816,0.80544,"(0.0, 0.0, 0.0, 0.0, 0.0, 0.0, 0.0, 0.0, 0.0)",-3.063,0.782,10.521,"(0.0, 0.0, 0.0, 0.0, 0.0, 0.0, 0.0, 0.0, 0.0)",0,0,0,,-0.1504,-0.1745,-0.4608,"(0.0, 0.0, 0.0, 0.0, 0.0, 0.0, 0.0, 0.0, 0.0)"
1677800810.5286372,4163,1677800810,489172935,imu1_frame,"$VNYMR,+146.234,+003.144,+176.370,-00.1614,-00.1463,-00.4760,-01.850,+00.288,+08.494,-02.393704,-00.297740,+00.746852*6B",0,0,0,,0.28933191437527783,0.9563121005571532,0.022332846920175425,0.03543238067562376,"(0.0, 0.0, 0.0, 0.0, 0.0, 0.0, 0.0, 0.0, 0.0)",-2.393704,-0.29774,0.746852,"(0.0, 0.0, 0.0, 0.0, 0.0, 0.0, 0.0, 0.0, 0.0)",-1.85,0.288,8.494,"(0.0, 0.0, 0.0, 0.0, 0.0, 0.0, 0.0, 0.0, 0.0)",0,0,0,,-0.1614,-0.1463,-0.476,"(0.0, 0.0, 0.0, 0.0, 0.0, 0.0, 0.0, 0.0, 0.0)"
1677800810.5286648,4164,1677800810,514099359,imu1_frame,"$VNYMR,+145.117,+003.222,+172.654,-00.1670,-00.1133,-00.4780,-00.891,+01.682,+09.803,-02.636685,-00.234732,+01.016737*63",0,0,0,,0.29727977007333684,0.9522273407023971,0.052683319004903806,0.045959741324473405,"(0.0, 0.0, 0.0, 0.0, 0.0, 0.0, 0.0, 0.0, 0.0)",-2.636685,-0.234732,1.016737,"(0.0, 0.0, 0.0, 0.0, 0.0, 0.0, 0.0, 0.0, 0.0)",-0.891,1.682,9.803,"(0.0, 0.0, 0.0, 0.0, 0.0, 0.0, 0.0, 0.0, 0.0)",0,0,0,,-0.167,-0.1133,-0.478,"(0.0, 0.0, 0.0, 0.0, 0.0, 0.0, 0.0, 0.0, 0.0)"
1677800810.5727656,4165,1677800810,539439201,imu1_frame,"$VNYMR,+143.441,+003.634,+168.861,-00.1760,-00.0863,-00.4765,-03.318,+01.204,+07.735,-02.762770,-00.674128,+01.229161*6F",0,0,0,,0.30909308071764224,0.9455452123084405,0.08221111001752737,0.06039082979020471,"(0.0, 0.0, 0.0, 0.0, 0.0, 0.0, 0.0, 0.0, 0.0)",-2.76277,-0.674128,1.229161,"(0.0, 0.0, 0.0, 0.0, 0.0, 0.0, 0.0, 0.0, 0.0)",-3.318,1.204,7.735,"(0.0, 0.0, 0.0, 0.0, 0.0, 0.0, 0.0, 0.0, 0.0)",0,0,0,,-0.176,-0.0863,-0.4765,"(0.0, 0.0, 0.0, 0.0, 0.0, 0.0, 0.0, 0.0, 0.0)"
1677800810.5727935,4166,1677800810,564835548,imu1_frame,"$VNYMR,+143.081,+003.047,+164.660,-00.1747,-00.0511,-00.4908,-02.690,+01.908,+07.498,-03.090456,+01.052617,-00.108786*63",0,0,0,,0.31032455066646936,0.9408525246344218,0.11821231458068027,0.06723874496275663,"(0.0, 0.0, 0.0, 0.0, 0.0, 0.0, 0.0, 0.0, 0.0)",-3.090456,1.052617,-0.108786,"(0.0, 0.0, 0.0, 0.0, 0.0, 0.0, 0.0, 0.0, 0.0)",-2.69,1.908,7.498,"(0.0, 0.0, 0.0, 0.0, 0.0, 0.0, 0.0, 0.0, 0.0)",0,0,0,,-0.1747,-0.0511,-0.4908,"(0.0, 0.0, 0.0, 0.0, 0.0, 0.0, 0.0, 0.0, 0.0)"
1677800810.6166055,4167,1677800810,590273380,imu1_frame,"$VNYMR,+144.441,+002.144,+160.672,-00.1667,-00.0136,-00.4906,-01.492,+02.368,+10.892,-02.323785,+00.468640,-00.861665*6B",0,0,0,,0.29797803818143476,0.9395203324498577,0.1541925834708974,0.06881337716914393,"(0.0, 0.0, 0.0, 0.0, 0.0, 0.0, 0.0, 0.0, 0.0)",-2.323785,0.46864,-0.861665,"(0.0, 0.0, 0.0, 0.0, 0.0, 0.0, 0.0, 0.0, 0.0)",-1.492,2.368,10.892,"(0.0, 0.0, 0.0, 0.0, 0.0, 0.0, 0.0, 0.0, 0.0)",0,0,0,,-0.1667,-0.0136,-0.4906,"(0.0, 0.0, 0.0, 0.0, 0.0, 0.0, 0.0, 0.0, 0.0)"
1677800810.6179621,4168,1677800810,615563154,imu1_frame,"$VNYMR,+144.794,+002.708,+158.975,-00.1724,-00.0135,-00.4846,+01.121,-01.919,+09.515,-01.201178,-00.542076,-00.042135*64",0,0,0,,0.29315135733002207,0.9382180364091822,0.16683212243864834,0.07730614965628436,"(0.0, 0.0, 0.0, 0.0, 0.0, 0.0, 0.0, 0.0, 0.0)",-1.201178,-0.542076,-0.042135,"(0.0, 0.0, 0.0, 0.0, 0.0, 0.0, 0.0, 0.0, 0.0)",1.121,-1.919,9.515,"(0.0, 0.0, 0.0, 0.0, 0.0, 0.0, 0.0, 0.0, 0.0)",0,0,0,,-0.1724,-0.0135,-0.4846,"(0.0, 0.0, 0.0, 0.0, 0.0, 0.0, 0.0, 0.0, 0.0)"
1677800810.6606677,4169,1677800810,639122247,imu1_frame,"$VNYMR,+145.714,+002.765,+156.139,-00.1701,+00.0146,-00.4847,-01.572,-04.310,+07.924,-02.337774,+00.729209,-00.898814*65",0,0,0,,0.2835405418953908,0.9361288196118885,0.19052522216829795,0.08347295317311654,"(0.0, 0.0, 0.0, 0.0, 0.0, 0.0, 0.0, 0.0, 0.0)",-2.337774,0.729209,-0.898814,"(0.0, 0.0, 0.0, 0.0, 0.0, 0.0, 0.0, 0.0, 0.0)",-1.572,-4.31,7.924,"(0.0, 0.0, 0.0, 0.0, 0.0, 0.0, 0.0, 0.0, 0.0)",0,0,0,,-0.1701,0.0146,-0.4847,"(0.0, 0.0, 0.0, 0.0, 0.0, 0.0, 0.0, 0.0, 0.0)"
1677800810.7045841,4170,1677800810,664522647,imu1_frame,"$VNYMR,+147.702,+002.424,+153.480,-00.1598,+00.0368,-00.4982,-01.284,-04.056,+09.687,-01.536548,+00.598456,-01.359616*61",0,0,0,,0.26600017013698285,0.9360731080505859,0.21454417060081435,0.08355743373764486,"(0.0, 0.0, 0.0, 0.0, 0.0, 0.0, 0.0, 0.0, 0.0)",-1.536548,0.598456,-1.359616,"(0.0, 0.0, 0.0, 0.0, 0.0, 0.0, 0.0, 0.0, 0.0)",-1.284,-4.056,9.687,"(0.0, 0.0, 0.0, 0.0, 0.0, 0.0, 0.0, 0.0, 0.0)",0,0,0,,-0.1598,0.0368,-0.4982,"(0.0, 0.0, 0.0, 0.0, 0.0, 0.0, 0.0, 0.0, 0.0)"
1677800810.7046032,4171,1677800810,689880847,imu1_frame,"$VNYMR,+149.548,+002.809,+151.732,-00.1609,+00.0437,-00.4858,-01.933,-01.326,+10.450,-01.277702,+00.167729,-01.072212*65",0,0,0,,0.24882493371889897,0.9369781341265456,0.2293056967714906,0.08704611396647247,"(0.0, 0.0, 0.0, 0.0, 0.0, 0.0, 0.0, 0.0, 0.0)",-1.277702,0.167729,-1.072212,"(0.0, 0.0, 0.0, 0.0, 0.0, 0.0, 0.0, 0.0, 0.0)",-1.933,-1.326,10.45,"(0.0, 0.0, 0.0, 0.0, 0.0, 0.0, 0.0, 0.0, 0.0)",0,0,0,,-0.1609,0.0437,-0.4858,"(0.0, 0.0, 0.0, 0.0, 0.0, 0.0, 0.0, 0.0, 0.0)"
1677800810.7514982,4172,1677800810,715316772,imu1_frame,"$VNYMR,+150.280,+003.014,+149.542,-00.1609,+00.0554,-00.4833,-02.267,-01.607,+11.805,-01.748289,+00.072035,-00.123245*6A",0,0,0,,0.240689479224027,0.9340625599306769,0.24729684396365112,0.09186936209768146,"(0.0, 0.0, 0.0, 0.0, 0.0, 0.0, 0.0, 0.0, 0.0)",-1.748289,0.072035,-0.123245,"(0.0, 0.0, 0.0, 0.0, 0.0, 0.0, 0.0, 0.0, 0.0)",-2.267,-1.607,11.805,"(0.0, 0.0, 0.0, 0.0, 0.0, 0.0, 0.0, 0.0, 0.0)",0,0,0,,-0.1609,0.0554,-0.4833,"(0.0, 0.0, 0.0, 0.0, 0.0, 0.0, 0.0, 0.0, 0.0)"
1677800810.751523,4173,1677800810,740799188,imu1_frame,"$VNYMR,+149.750,+002.956,+148.216,-00.1596,+00.0648,-00.4974,-04.528,-03.793,+13.717,-00.102391,-00.389341,+00.574867*6A",0,0,0,,0.24405142806160854,0.929996392013038,0.25777852364323633,0.09537213456840918,"(0.0, 0.0, 0.0, 0.0, 0.0, 0.0, 0.0, 0.0, 0.0)",-0.102391,-0.389341,0.574867,"(0.0, 0.0, 0.0, 0.0, 0.0, 0.0, 0.0, 0.0, 0.0)",-4.528,-3.793,13.717,"(0.0, 0.0, 0.0, 0.0, 0.0, 0.0, 0.0, 0.0, 0.0)",0,0,0,,-0.1596,0.0648,-0.4974,"(0.0, 0.0, 0.0, 0.0, 0.0, 0.0, 0.0, 0.0, 0.0)"
1677800810.7934582,4174,1677800810,764159679,imu1_frame,"$VNYMR,+148.050,+003.527,+150.650,-00.1676,+00.0672,-00.4827,-06.395,-03.371,+13.827,+02.727022,-01.426421,+00.959876*62",0,0,0,,0.25861865705428644,0.9317251992779506,0.23524388843667787,0.09831000054466625,"(0.0, 0.0, 0.0, 0.0, 0.0, 0.0, 0.0, 0.0, 0.0)",2.727022,-1.426421,0.959876,"(0.0, 0.0, 0.0, 0.0, 0.0, 0.0, 0.0, 0.0, 0.0)",-6.395,-3.371,13.827,"(0.0, 0.0, 0.0, 0.0, 0.0, 0.0, 0.0, 0.0, 0.0)",0,0,0,,-0.1676,0.0672,-0.4827,"(0.0, 0.0, 0.0, 0.0, 0.0, 0.0, 0.0, 0.0, 0.0)"
1677800810.7934725,4175,1677800810,789592027,imu1_frame,"$VNYMR,+145.820,+004.495,+155.447,-00.1822,+00.0250,-00.4923,-07.866,-04.863,+10.151,+03.860814,-01.159511,+00.925577*6A",0,0,0,,0.27896222957200045,0.9357189028327262,0.1918234094056034,0.09906557907642684,"(0.0, 0.0, 0.0, 0.0, 0.0, 0.0, 0.0, 0.0, 0.0)",3.860814,-1.159511,0.925577,"(0.0, 0.0, 0.0, 0.0, 0.0, 0.0, 0.0, 0.0, 0.0)",-7.866,-4.863,10.151,"(0.0, 0.0, 0.0, 0.0, 0.0, 0.0, 0.0, 0.0, 0.0)",0,0,0,,-0.1822,0.025,-0.4923,"(0.0, 0.0, 0.0, 0.0, 0.0, 0.0, 0.0, 0.0, 0.0)"
1677800810.8368204,4176,1677800810,814955949,imu1_frame,"$VNYMR,+145.167,+005.158,+160.221,-00.1869,-00.0241,-00.4782,-06.509,-05.148,+06.969,+03.040456,-00.203037,-00.269136*61",0,0,0,,0.28719549300760944,0.9413372993435122,0.1504404984858418,0.09365091604522822,"(0.0, 0.0, 0.0, 0.0, 0.0, 0.0, 0.0, 0.0, 0.0)",3.040456,-0.203037,-0.269136,"(0.0, 0.0, 0.0, 0.0, 0.0, 0.0, 0.0, 0.0, 0.0)",-6.509,-5.148,6.969,"(0.0, 0.0, 0.0, 0.0, 0.0, 0.0, 0.0, 0.0, 0.0)",0,0,0,,-0.1869,-0.0241,-0.4782,"(0.0, 0.0, 0.0, 0.0, 0.0, 0.0, 0.0, 0.0, 0.0)"
1677800810.8426917,4177,1677800810,840301752,imu1_frame,"$VNYMR,+146.836,+004.660,+163.584,-00.1812,-00.0453,-00.4903,-04.003,-04.655,+07.754,+01.798968,+01.202282,-01.443550*60",0,0,0,,0.27666752970463215,0.9494667848211223,0.12523308847626005,0.07927531822247147,"(0.0, 0.0, 0.0, 0.0, 0.0, 0.0, 0.0, 0.0, 0.0)",1.798968,1.202282,-1.44355,"(0.0, 0.0, 0.0, 0.0, 0.0, 0.0, 0.0, 0.0, 0.0)",-4.003,-4.655,7.754,"(0.0, 0.0, 0.0, 0.0, 0.0, 0.0, 0.0, 0.0, 0.0)",0,0,0,,-0.1812,-0.0453,-0.4903,"(0.0, 0.0, 0.0, 0.0, 0.0, 0.0, 0.0, 0.0, 0.0)"
1677800810.8847976,4178,1677800810,863886833,imu1_frame,"$VNYMR,+149.735,+003.521,+165.887,-00.1621,-00.0641,-00.4913,-02.017,-02.500,+10.027,+01.426094,+01.168758,-01.746461*63",0,0,0,,0.25530925218854444,0.9585458827151558,0.1105730626780734,0.061486374805640995,"(0.0, 0.0, 0.0, 0.0, 0.0, 0.0, 0.0, 0.0, 0.0)",1.426094,1.168758,-1.746461,"(0.0, 0.0, 0.0, 0.0, 0.0, 0.0, 0.0, 0.0, 0.0)",-2.017,-2.5,10.027,"(0.0, 0.0, 0.0, 0.0, 0.0, 0.0, 0.0, 0.0, 0.0)",0,0,0,,-0.1621,-0.0641,-0.4913,"(0.0, 0.0, 0.0, 0.0, 0.0, 0.0, 0.0, 0.0, 0.0)"
1677800810.930377,4179,1677800810,889217853,imu1_frame,"$VNYMR,+152.848,+002.504,+168.606,-00.1443,-00.0935,-00.4807,-01.927,-02.336,+12.124,+02.204558,+01.099398,-02.252767*65",0,0,0,,0.23141141143335683,0.9675364016329202,0.09136744046727041,0.044430406211310815,"(0.0, 0.0, 0.0, 0.0, 0.0, 0.0, 0.0, 0.0, 0.0)",2.204558,1.099398,-2.252767,"(0.0, 0.0, 0.0, 0.0, 0.0, 0.0, 0.0, 0.0, 0.0)",-1.927,-2.336,12.124,"(0.0, 0.0, 0.0, 0.0, 0.0, 0.0, 0.0, 0.0, 0.0)",0,0,0,,-0.1443,-0.0935,-0.4807,"(0.0, 0.0, 0.0, 0.0, 0.0, 0.0, 0.0, 0.0, 0.0)"
1677800810.9304316,4180,1677800810,914633512,imu1_frame,"$VNYMR,+155.931,+002.796,+173.391,-00.1367,-00.1337,-00.4832,-01.590,-01.727,+10.641,+03.516050,-00.600076,-01.963674*69",0,0,0,,0.20671658822281397,0.9763986531027028,0.05128041280967091,0.03583631726080812,"(0.0, 0.0, 0.0, 0.0, 0.0, 0.0, 0.0, 0.0, 0.0)",3.51605,-0.600076,-1.963674,"(0.0, 0.0, 0.0, 0.0, 0.0, 0.0, 0.0, 0.0, 0.0)",-1.59,-1.727,10.641,"(0.0, 0.0, 0.0, 0.0, 0.0, 0.0, 0.0, 0.0, 0.0)",0,0,0,,-0.1367,-0.1337,-0.4832,"(0.0, 0.0, 0.0, 0.0, 0.0, 0.0, 0.0, 0.0, 0.0)"
1677800810.9732645,4181,1677800810,940102100,imu1_frame,"$VNYMR,+159.104,+003.385,+178.107,-00.1301,-00.1806,-00.4695,-00.967,-01.336,+06.542,+02.560482,+00.170013,-02.330556*64",0,0,0,,0.18075943073028666,0.9829452140851687,0.010882509835316481,0.0320359998877631,"(0.0, 0.0, 0.0, 0.0, 0.0, 0.0, 0.0, 0.0, 0.0)",2.560482,0.170013,-2.330556,"(0.0, 0.0, 0.0, 0.0, 0.0, 0.0, 0.0, 0.0, 0.0)",-0.967,-1.336,6.542,"(0.0, 0.0, 0.0, 0.0, 0.0, 0.0, 0.0, 0.0, 0.0)",0,0,0,,-0.1301,-0.1806,-0.4695,"(0.0, 0.0, 0.0, 0.0, 0.0, 0.0, 0.0, 0.0, 0.0)"
1677800810.9732907,4182,1677800810,965375423,imu1_frame,"$VNYMR,+162.503,+001.806,-179.389,-00.1077,-00.1971,-00.4651,-00.351,+00.693,+08.354,+01.101381,+01.446886,-02.195879*64",0,0,0,,-0.15215951212739284,-0.9882159177122343,0.007666239059261113,-0.014765216828975324,"(0.0, 0.0, 0.0, 0.0, 0.0, 0.0, 0.0, 0.0, 0.0)",1.101381,1.446886,-2.195879,"(0.0, 0.0, 0.0, 0.0, 0.0, 0.0, 0.0, 0.0, 0.0)",-0.351,0.693,8.354,"(0.0, 0.0, 0.0, 0.0, 0.0, 0.0, 0.0, 0.0, 0.0)",0,0,0,,-0.1077,-0.1971,-0.4651,"(0.0, 0.0, 0.0, 0.0, 0.0, 0.0, 0.0, 0.0, 0.0)"
1677800811.0166357,4183,1677800810,989032745,imu1_frame,"$VNYMR,+165.087,-000.277,-178.346,-00.0854,-00.2148,-00.4582,-00.060,+00.570,+08.961,+00.465997,+01.315734,-01.677241*61",0,0,0,,-0.12972494006362567,-0.9914420189321613,0.013997610748574106,0.004269650400192868,"(0.0, 0.0, 0.0, 0.0, 0.0, 0.0, 0.0, 0.0, 0.0)",0.465997,1.315734,-1.677241,"(0.0, 0.0, 0.0, 0.0, 0.0, 0.0, 0.0, 0.0, 0.0)",-0.06,0.57,8.961,"(0.0, 0.0, 0.0, 0.0, 0.0, 0.0, 0.0, 0.0, 0.0)",0,0,0,,-0.0854,-0.2148,-0.4582,"(0.0, 0.0, 0.0, 0.0, 0.0, 0.0, 0.0, 0.0, 0.0)"
1677800811.016786,4184,1677800811,14307737,imu1_frame,"$VNYMR,+167.227,-002.144,-178.364,-00.0630,-00.2172,-00.4501,+00.052,+00.950,+08.463,-00.389652,+01.331375,-01.425751*61",0,0,0,,-0.11093853938824925,-0.9935486649170266,0.012104367172892753,0.020178583085530593,"(0.0, 0.0, 0.0, 0.0, 0.0, 0.0, 0.0, 0.0, 0.0)",-0.389652,1.331375,-1.425751,"(0.0, 0.0, 0.0, 0.0, 0.0, 0.0, 0.0, 0.0, 0.0)",0.052,0.95,8.463,"(0.0, 0.0, 0.0, 0.0, 0.0, 0.0, 0.0, 0.0, 0.0)",0,0,0,,-0.063,-0.2172,-0.4501,"(0.0, 0.0, 0.0, 0.0, 0.0, 0.0, 0.0, 0.0, 0.0)"
1677800811.0622077,4185,1677800811,39648771,imu1_frame,"$VNYMR,+168.691,-004.608,-179.489,-00.0359,-00.2092,-00.4648,+00.081,+05.489,+09.055,-00.854736,+01.872714,-00.476655*67",0,0,0,,-0.09827049065894346,-0.9943374301518679,0.00047301568684836055,0.040444553660411685,"(0.0, 0.0, 0.0, 0.0, 0.0, 0.0, 0.0, 0.0, 0.0)",-0.854736,1.872714,-0.476655,"(0.0, 0.0, 0.0, 0.0, 0.0, 0.0, 0.0, 0.0, 0.0)",0.081,5.489,9.055,"(0.0, 0.0, 0.0, 0.0, 0.0, 0.0, 0.0, 0.0, 0.0)",0,0,0,,-0.0359,-0.2092,-0.4648,"(0.0, 0.0, 0.0, 0.0, 0.0, 0.0, 0.0, 0.0, 0.0)"
1677800811.1045566,4186,1677800811,65071821,imu1_frame,"$VNYMR,+166.985,-007.835,-179.793,-00.0236,-00.1999,-00.4550,-01.523,+05.679,+10.506,+00.099730,+02.415166,+02.342659*6B",0,0,0,,-0.1129456595194502,-0.9912479110561006,-0.005952335351131408,0.068083966735945,"(0.0, 0.0, 0.0, 0.0, 0.0, 0.0, 0.0, 0.0, 0.0)",0.09973,2.415166,2.342659,"(0.0, 0.0, 0.0, 0.0, 0.0, 0.0, 0.0, 0.0, 0.0)",-1.523,5.679,10.506,"(0.0, 0.0, 0.0, 0.0, 0.0, 0.0, 0.0, 0.0, 0.0)",0,0,0,,-0.0236,-0.1999,-0.455,"(0.0, 0.0, 0.0, 0.0, 0.0, 0.0, 0.0, 0.0, 0.0)"
1677800811.1045787,4187,1677800811,90447902,imu1_frame,"$VNYMR,+161.910,-011.358,-178.218,-00.0079,-00.2140,-00.4499,-04.201,+02.031,+11.267,+00.599131,+02.640451,+04.153463*62",0,0,0,,-0.15489998590744236,-0.9828411979354941,-0.0002733355806561928,0.10014539077889463,"(0.0, 0.0, 0.0, 0.0, 0.0, 0.0, 0.0, 0.0, 0.0)",0.599131,2.640451,4.153463,"(0.0, 0.0, 0.0, 0.0, 0.0, 0.0, 0.0, 0.0, 0.0)",-4.201,2.031,11.267,"(0.0, 0.0, 0.0, 0.0, 0.0, 0.0, 0.0, 0.0, 0.0)",0,0,0,,-0.0079,-0.214,-0.4499,"(0.0, 0.0, 0.0, 0.0, 0.0, 0.0, 0.0, 0.0, 0.0)"
1677800811.1524708,4188,1677800811,114023685,imu1_frame,"$VNYMR,+154.322,-014.831,-175.716,-00.0114,-00.2236,-00.4575,-04.639,-00.043,+12.387,+00.327090,+02.562009,+05.454867*69",0,0,0,,-0.2154964039404576,-0.9672400816217636,0.007477460281970015,0.13398511850495434,"(0.0, 0.0, 0.0, 0.0, 0.0, 0.0, 0.0, 0.0, 0.0)",0.32709,2.562009,5.454867,"(0.0, 0.0, 0.0, 0.0, 0.0, 0.0, 0.0, 0.0, 0.0)",-4.639,-0.043,12.387,"(0.0, 0.0, 0.0, 0.0, 0.0, 0.0, 0.0, 0.0, 0.0)",0,0,0,,-0.0114,-0.2236,-0.4575,"(0.0, 0.0, 0.0, 0.0, 0.0, 0.0, 0.0, 0.0, 0.0)"
1677800811.152496,4189,1677800811,139432668,imu1_frame,"$VNYMR,+145.265,-017.804,-172.327,-00.0160,-00.2247,-00.4477,-05.108,+03.609,+11.706,+00.735014,+02.705560,+06.339893*68",0,0,0,,-0.2843611464793554,-0.9438910340571334,0.017002145716515822,0.16709093703889674,"(0.0, 0.0, 0.0, 0.0, 0.0, 0.0, 0.0, 0.0, 0.0)",0.735014,2.70556,6.339893,"(0.0, 0.0, 0.0, 0.0, 0.0, 0.0, 0.0, 0.0, 0.0)",-5.108,3.609,11.706,"(0.0, 0.0, 0.0, 0.0, 0.0, 0.0, 0.0, 0.0, 0.0)",0,0,0,,-0.016,-0.2247,-0.4477,"(0.0, 0.0, 0.0, 0.0, 0.0, 0.0, 0.0, 0.0, 0.0)"
1677800811.1930566,4190,1677800811,164795875,imu1_frame,"$VNYMR,+133.450,-019.720,-167.355,-00.0341,-00.2475,-00.4340,-06.133,+04.067,+11.012,+00.880958,+02.697897,+08.234143*63",0,0,0,,-0.3696170136812428,-0.9069969560918754,0.03241475393195685,0.19922115491323575,"(0.0, 0.0, 0.0, 0.0, 0.0, 0.0, 0.0, 0.0, 0.0)",0.880958,2.697897,8.234143,"(0.0, 0.0, 0.0, 0.0, 0.0, 0.0, 0.0, 0.0, 0.0)",-6.133,4.067,11.012,"(0.0, 0.0, 0.0, 0.0, 0.0, 0.0, 0.0, 0.0, 0.0)",0,0,0,,-0.0341,-0.2475,-0.434,"(0.0, 0.0, 0.0, 0.0, 0.0, 0.0, 0.0, 0.0, 0.0)"
1677800811.1930752,4191,1677800811,190157890,imu1_frame,"$VNYMR,+119.898,-020.391,-161.674,-00.0577,-00.2520,-00.4357,-05.273,+00.126,+10.305,+00.357211,+02.917352,+08.294869*6A",0,0,0,,-0.46217559796161034,-0.8551564649299033,0.048152596896689145,0.2297443460665008,"(0.0, 0.0, 0.0, 0.0, 0.0, 0.0, 0.0, 0.0, 0.0)",0.357211,2.917352,8.294869,"(0.0, 0.0, 0.0, 0.0, 0.0, 0.0, 0.0, 0.0, 0.0)",-5.273,0.126,10.305,"(0.0, 0.0, 0.0, 0.0, 0.0, 0.0, 0.0, 0.0, 0.0)",0,0,0,,-0.0577,-0.252,-0.4357,"(0.0, 0.0, 0.0, 0.0, 0.0, 0.0, 0.0, 0.0, 0.0)"
1677800811.2372882,4192,1677800811,215603113,imu1_frame,"$VNYMR,+107.975,-020.599,-158.219,-00.0727,-00.2373,-00.4486,-03.117,-01.636,+10.182,-00.664562,+02.779437,+06.532883*68",0,0,0,,-0.5407449210074792,-0.8013828059328799,0.047132396541998786,0.2513146751703267,"(0.0, 0.0, 0.0, 0.0, 0.0, 0.0, 0.0, 0.0, 0.0)",-0.664562,2.779437,6.532883,"(0.0, 0.0, 0.0, 0.0, 0.0, 0.0, 0.0, 0.0, 0.0)",-3.117,-1.636,10.182,"(0.0, 0.0, 0.0, 0.0, 0.0, 0.0, 0.0, 0.0, 0.0)",0,0,0,,-0.0727,-0.2373,-0.4486,"(0.0, 0.0, 0.0, 0.0, 0.0, 0.0, 0.0, 0.0, 0.0)"
1677800811.2415228,4193,1677800811,239007472,imu1_frame,"$VNYMR,+099.262,-020.139,-157.053,-00.0850,-00.2185,-00.4484,-01.488,+01.460,+09.687,-01.721982,+01.244076,+05.161709*62",0,0,0,,-0.5984892891665574,-0.7576890523167995,0.03823256077351832,0.2574026846186305,"(0.0, 0.0, 0.0, 0.0, 0.0, 0.0, 0.0, 0.0, 0.0)",-1.721982,1.244076,5.161709,"(0.0, 0.0, 0.0, 0.0, 0.0, 0.0, 0.0, 0.0, 0.0)",-1.488,1.46,9.687,"(0.0, 0.0, 0.0, 0.0, 0.0, 0.0, 0.0, 0.0, 0.0)",0,0,0,,-0.085,-0.2185,-0.4484,"(0.0, 0.0, 0.0, 0.0, 0.0, 0.0, 0.0, 0.0, 0.0)"
1677800811.2859766,4194,1677800811,264499902,imu1_frame,"$VNYMR,+092.044,-018.456,-157.700,-00.1084,-00.1975,-00.4554,-01.396,-00.407,+06.191,-02.394948,+00.660070,+04.505447*64",0,0,0,,-0.6501425091802182,-0.7184194063689623,0.028103552139268462,0.24576099093727857,"(0.0, 0.0, 0.0, 0.0, 0.0, 0.0, 0.0, 0.0, 0.0)",-2.394948,0.66007,4.505447,"(0.0, 0.0, 0.0, 0.0, 0.0, 0.0, 0.0, 0.0, 0.0)",-1.396,-0.407,6.191,"(0.0, 0.0, 0.0, 0.0, 0.0, 0.0, 0.0, 0.0, 0.0)",0,0,0,,-0.1084,-0.1975,-0.4554,"(0.0, 0.0, 0.0, 0.0, 0.0, 0.0, 0.0, 0.0, 0.0)"
1677800811.3291383,4195,1677800811,289892911,imu1_frame,"$VNYMR,+086.769,-018.259,-161.264,-00.1105,-00.1644,-00.4809,+00.401,+00.029,+04.627,-04.613572,+01.663808,+02.673464*63",0,0,0,,-0.6902439623006332,-0.6879146859996974,-0.0033823470648400578,0.22433282644720698,"(0.0, 0.0, 0.0, 0.0, 0.0, 0.0, 0.0, 0.0, 0.0)",-4.613572,1.663808,2.673464,"(0.0, 0.0, 0.0, 0.0, 0.0, 0.0, 0.0, 0.0, 0.0)",0.401,0.029,4.627,"(0.0, 0.0, 0.0, 0.0, 0.0, 0.0, 0.0, 0.0, 0.0)",0,0,0,,-0.1105,-0.1644,-0.4809,"(0.0, 0.0, 0.0, 0.0, 0.0, 0.0, 0.0, 0.0, 0.0)"
1677800811.32916,4196,1677800811,315196990,imu1_frame,"$VNYMR,+083.483,-020.011,-172.607,-00.1002,-00.0634,-00.4963,+02.588,-02.838,+07.784,-12.693451,+01.765074,+01.109553*68",0,0,0,,-0.7258216128111169,-0.6626393028133705,-0.08709914818568801,0.1628062625595433,"(0.0, 0.0, 0.0, 0.0, 0.0, 0.0, 0.0, 0.0, 0.0)",-12.693451,1.765074,1.109553,"(0.0, 0.0, 0.0, 0.0, 0.0, 0.0, 0.0, 0.0, 0.0)",2.588,-2.838,7.784,"(0.0, 0.0, 0.0, 0.0, 0.0, 0.0, 0.0, 0.0, 0.0)",0,0,0,,-0.1002,-0.0634,-0.4963,"(0.0, 0.0, 0.0, 0.0, 0.0, 0.0, 0.0, 0.0, 0.0)"
1677800811.3771527,4197,1677800811,338771104,imu1_frame,"$VNYMR,+082.377,-021.240,+171.159,-00.0821,+00.0800,-00.5013,-01.945,-06.194,+04.999,-09.680807,+00.660889,+00.299694*6A",0,0,0,,0.7468107764180015,0.6346432783823648,0.18816561455113448,-0.06399433514475904,"(0.0, 0.0, 0.0, 0.0, 0.0, 0.0, 0.0, 0.0, 0.0)",-9.680807,0.660889,0.299694,"(0.0, 0.0, 0.0, 0.0, 0.0, 0.0, 0.0, 0.0, 0.0)",-1.945,-6.194,4.999,"(0.0, 0.0, 0.0, 0.0, 0.0, 0.0, 0.0, 0.0, 0.0)",0,0,0,,-0.0821,0.08,-0.5013,"(0.0, 0.0, 0.0, 0.0, 0.0, 0.0, 0.0, 0.0, 0.0)"
1677800811.3771663,4198,1677800811,364201307,imu1_frame,"$VNYMR,+083.828,-019.970,+171.028,-00.0957,+00.0701,-00.4874,-18.189,-36.226,+47.475,+12.255503,-04.564113,-03.628522*6A",0,0,0,,0.7396911608918253,0.6457886296348675,0.18009053389688967,-0.05815008111393531,"(0.0, 0.0, 0.0, 0.0, 0.0, 0.0, 0.0, 0.0, 0.0)",12.255503,-4.564113,-3.628522,"(0.0, 0.0, 0.0, 0.0, 0.0, 0.0, 0.0, 0.0, 0.0)",-18.189,-36.226,47.475,"(0.0, 0.0, 0.0, 0.0, 0.0, 0.0, 0.0, 0.0, 0.0)",0,0,0,,-0.0957,0.0701,-0.4874,"(0.0, 0.0, 0.0, 0.0, 0.0, 0.0, 0.0, 0.0, 0.0)"
1677800811.4227953,4199,1677800811,389495134,imu1_frame,"$VNYMR,+086.760,-009.498,+164.913,-00.1709,+00.1133,-00.4733,-03.200,-00.925,-09.091,-01.363060,-04.124660,-02.299957*68",0,0,0,,0.7255156169410831,0.6706525804121525,0.14951001707258166,0.038716414556065386,"(0.0, 0.0, 0.0, 0.0, 0.0, 0.0, 0.0, 0.0, 0.0)",-1.36306,-4.12466,-2.299957,"(0.0, 0.0, 0.0, 0.0, 0.0, 0.0, 0.0, 0.0, 0.0)",-3.2,-0.925,-9.091,"(0.0, 0.0, 0.0, 0.0, 0.0, 0.0, 0.0, 0.0, 0.0)",0,0,0,,-0.1709,0.1133,-0.4733,"(0.0, 0.0, 0.0, 0.0, 0.0, 0.0, 0.0, 0.0, 0.0)"
1677800811.4228148,4200,1677800811,415031433,imu1_frame,"$VNYMR,+088.815,-007.351,+170.001,-00.1941,+00.0546,-00.4745,+02.727,+03.098,+03.621,+05.551218,-00.573236,-00.665285*6C",0,0,0,,0.7141086612603027,0.6916697953390929,0.1064779010210128,0.017440490897755172,"(0.0, 0.0, 0.0, 0.0, 0.0, 0.0, 0.0, 0.0, 0.0)",5.551218,-0.573236,-0.665285,"(0.0, 0.0, 0.0, 0.0, 0.0, 0.0, 0.0, 0.0, 0.0)",2.727,3.098,3.621,"(0.0, 0.0, 0.0, 0.0, 0.0, 0.0, 0.0, 0.0, 0.0)",0,0,0,,-0.1941,0.0546,-0.4745,"(0.0, 0.0, 0.0, 0.0, 0.0, 0.0, 0.0, 0.0, 0.0)"
1677800811.4657829,4201,1677800811,440319538,imu1_frame,"$VNYMR,+088.786,-007.594,+177.512,-00.1933,+00.0084,-00.4728,-02.045,+01.075,+14.978,+04.601215,+00.168753,+00.050577*6A",0,0,0,,0.7138273765984089,0.6968485992500447,0.062462661580804116,-0.030837024015390825,"(0.0, 0.0, 0.0, 0.0, 0.0, 0.0, 0.0, 0.0, 0.0)",4.601215,0.168753,0.050577,"(0.0, 0.0, 0.0, 0.0, 0.0, 0.0, 0.0, 0.0, 0.0)",-2.045,1.075,14.978,"(0.0, 0.0, 0.0, 0.0, 0.0, 0.0, 0.0, 0.0, 0.0)",0,0,0,,-0.1933,0.0084,-0.4728,"(0.0, 0.0, 0.0, 0.0, 0.0, 0.0, 0.0, 0.0, 0.0)"
1677800811.4681706,4202,1677800811,465759992,imu1_frame,"$VNYMR,+088.725,-007.660,-178.373,-00.1921,-00.0112,-00.4875,-01.013,+14.122,-00.963,+03.139575,-00.139236,+00.234639*66",0,0,0,,-0.7125987631819917,-0.6982417015148962,-0.03784507195035129,0.0568267499171931,"(0.0, 0.0, 0.0, 0.0, 0.0, 0.0, 0.0, 0.0, 0.0)",3.139575,-0.139236,0.234639,"(0.0, 0.0, 0.0, 0.0, 0.0, 0.0, 0.0, 0.0, 0.0)",-1.013,14.122,-0.963,"(0.0, 0.0, 0.0, 0.0, 0.0, 0.0, 0.0, 0.0, 0.0)",0,0,0,,-0.1921,-0.0112,-0.4875,"(0.0, 0.0, 0.0, 0.0, 0.0, 0.0, 0.0, 0.0, 0.0)"
1677800811.5137308,4203,1677800811,489210605,imu1_frame,"$VNYMR,+086.993,-010.090,-171.782,-00.1746,-00.0756,-00.4831,-05.546,+01.498,+18.238,+02.874917,+01.838146,+00.776460*6A",0,0,0,,-0.7164115492661408,-0.6884522304335384,-0.014498588480934958,0.11215083335060252,"(0.0, 0.0, 0.0, 0.0, 0.0, 0.0, 0.0, 0.0, 0.0)",2.874917,1.838146,0.77646,"(0.0, 0.0, 0.0, 0.0, 0.0, 0.0, 0.0, 0.0, 0.0)",-5.546,1.498,18.238,"(0.0, 0.0, 0.0, 0.0, 0.0, 0.0, 0.0, 0.0, 0.0)",0,0,0,,-0.1746,-0.0756,-0.4831,"(0.0, 0.0, 0.0, 0.0, 0.0, 0.0, 0.0, 0.0, 0.0)"
1677800811.557187,4204,1677800811,514565944,imu1_frame,"$VNYMR,+084.644,-011.608,-167.858,-00.1624,-00.0884,-00.4921,-03.407,+03.965,+18.236,+02.095004,+00.809323,+01.999648*68",0,0,0,,-0.7242559029474627,-0.6739958449193837,-0.0035069563774528106,0.14550150973143947,"(0.0, 0.0, 0.0, 0.0, 0.0, 0.0, 0.0, 0.0, 0.0)",2.095004,0.809323,1.999648,"(0.0, 0.0, 0.0, 0.0, 0.0, 0.0, 0.0, 0.0, 0.0)",-3.407,3.965,18.236,"(0.0, 0.0, 0.0, 0.0, 0.0, 0.0, 0.0, 0.0, 0.0)",0,0,0,,-0.1624,-0.0884,-0.4921,"(0.0, 0.0, 0.0, 0.0, 0.0, 0.0, 0.0, 0.0, 0.0)"
1677800811.5572107,4205,1677800811,539967298,imu1_frame,"$VNYMR,+081.142,-010.995,-164.517,-00.1692,-00.1067,-00.4762,-04.648,+05.537,+18.115,+01.579015,-00.017275,+02.325408*6D",0,0,0,,-0.7408222360160032,-0.6513004349158493,0.015098841762457807,0.16359151286086565,"(0.0, 0.0, 0.0, 0.0, 0.0, 0.0, 0.0, 0.0, 0.0)",1.579015,-0.017275,2.325408,"(0.0, 0.0, 0.0, 0.0, 0.0, 0.0, 0.0, 0.0, 0.0)",-4.648,5.537,18.115,"(0.0, 0.0, 0.0, 0.0, 0.0, 0.0, 0.0, 0.0, 0.0)",0,0,0,,-0.1692,-0.1067,-0.4762,"(0.0, 0.0, 0.0, 0.0, 0.0, 0.0, 0.0, 0.0, 0.0)"
1677800811.6035318,4206,1677800811,565377473,imu1_frame,"$VNYMR,+078.604,-011.022,-161.382,-00.1638,-00.1248,-00.4764,-01.503,+01.328,+12.693,+01.665330,+00.698550,+01.564967*63",0,0,0,,-0.7502576387119166,-0.6341980279176863,0.028649381539906538,0.1846227230790337,"(0.0, 0.0, 0.0, 0.0, 0.0, 0.0, 0.0, 0.0, 0.0)",1.66533,0.69855,1.564967,"(0.0, 0.0, 0.0, 0.0, 0.0, 0.0, 0.0, 0.0, 0.0)",-1.503,1.328,12.693,"(0.0, 0.0, 0.0, 0.0, 0.0, 0.0, 0.0, 0.0, 0.0)",0,0,0,,-0.1638,-0.1248,-0.4764,"(0.0, 0.0, 0.0, 0.0, 0.0, 0.0, 0.0, 0.0, 0.0)"
1677800811.6035588,4207,1677800811,588883399,imu1_frame,"$VNYMR,+075.360,-010.740,-158.575,-00.1637,-00.1363,-00.4888,-02.140,+02.999,+08.041,+01.737462,+00.578421,+02.598554*64",0,0,0,,-0.7635976481229515,-0.6117300101391843,0.040343848168209434,0.20267560383823013,"(0.0, 0.0, 0.0, 0.0, 0.0, 0.0, 0.0, 0.0, 0.0)",1.737462,0.578421,2.598554,"(0.0, 0.0, 0.0, 0.0, 0.0, 0.0, 0.0, 0.0, 0.0)",-2.14,2.999,8.041,"(0.0, 0.0, 0.0, 0.0, 0.0, 0.0, 0.0, 0.0, 0.0)",0,0,0,,-0.1637,-0.1363,-0.4888,"(0.0, 0.0, 0.0, 0.0, 0.0, 0.0, 0.0, 0.0, 0.0)"
1677800811.651629,4208,1677800811,614297389,imu1_frame,"$VNYMR,+071.260,-010.320,-154.519,-00.1660,-00.1385,-00.4752,-01.884,+04.337,+07.903,+02.529832,+00.913450,+02.777794*60",0,0,0,,-0.778016615359686,-0.5820242545932952,0.056651287604290446,0.22962696902183177,"(0.0, 0.0, 0.0, 0.0, 0.0, 0.0, 0.0, 0.0, 0.0)",2.529832,0.91345,2.777794,"(0.0, 0.0, 0.0, 0.0, 0.0, 0.0, 0.0, 0.0, 0.0)",-1.884,4.337,7.903,"(0.0, 0.0, 0.0, 0.0, 0.0, 0.0, 0.0, 0.0, 0.0)",0,0,0,,-0.166,-0.1385,-0.4752,"(0.0, 0.0, 0.0, 0.0, 0.0, 0.0, 0.0, 0.0, 0.0)"
1677800811.651674,4209,1677800811,639610767,imu1_frame,"$VNYMR,+067.020,-009.512,-150.125,-00.1661,-00.1660,-00.4712,-01.512,+07.079,+07.913,+02.247845,+00.815326,+02.845144*68",0,0,0,,-0.7910407498821901,-0.5494093623027769,0.07502218562766932,0.2584096675891321,"(0.0, 0.0, 0.0, 0.0, 0.0, 0.0, 0.0, 0.0, 0.0)",2.247845,0.815326,2.845144,"(0.0, 0.0, 0.0, 0.0, 0.0, 0.0, 0.0, 0.0, 0.0)",-1.512,7.079,7.913,"(0.0, 0.0, 0.0, 0.0, 0.0, 0.0, 0.0, 0.0, 0.0)",0,0,0,,-0.1661,-0.166,-0.4712,"(0.0, 0.0, 0.0, 0.0, 0.0, 0.0, 0.0, 0.0, 0.0)"
1677800811.6925888,4210,1677800811,665093898,imu1_frame,"$VNYMR,+063.434,-008.629,-148.123,-00.1659,-00.1759,-00.4761,+02.978,+07.662,+04.653,+00.096193,+00.670522,+02.449641*6E",0,0,0,,-0.8047745917260783,-0.5216546669463914,0.0824220277880259,0.27096286516879625,"(0.0, 0.0, 0.0, 0.0, 0.0, 0.0, 0.0, 0.0, 0.0)",0.096193,0.670522,2.449641,"(0.0, 0.0, 0.0, 0.0, 0.0, 0.0, 0.0, 0.0, 0.0)",2.978,7.662,4.653,"(0.0, 0.0, 0.0, 0.0, 0.0, 0.0, 0.0, 0.0, 0.0)",0,0,0,,-0.1659,-0.1759,-0.4761,"(0.0, 0.0, 0.0, 0.0, 0.0, 0.0, 0.0, 0.0, 0.0)"
1677800811.69272,4211,1677800811,690430641,imu1_frame,"$VNYMR,+058.966,-006.910,-147.472,-00.1714,-00.1587,-00.4742,+05.249,+05.149,+01.414,+00.436605,+00.640014,+03.395628*6A",0,0,0,,-0.8258399459535721,-0.486303070932057,0.08722601273957206,0.27182591776908993,"(0.0, 0.0, 0.0, 0.0, 0.0, 0.0, 0.0, 0.0, 0.0)",0.436605,0.640014,3.395628,"(0.0, 0.0, 0.0, 0.0, 0.0, 0.0, 0.0, 0.0, 0.0)",5.249,5.149,1.414,"(0.0, 0.0, 0.0, 0.0, 0.0, 0.0, 0.0, 0.0, 0.0)",0,0,0,,-0.1714,-0.1587,-0.4742,"(0.0, 0.0, 0.0, 0.0, 0.0, 0.0, 0.0, 0.0, 0.0)"
1677800811.7394497,4212,1677800811,713999986,imu1_frame,"$VNYMR,+055.418,-004.798,-144.507,-00.1857,-00.1769,-00.4677,+06.452,+04.541,+00.839,+02.586895,-00.404614,+02.051370*6D",0,0,0,,-0.8365205709112078,-0.4537620734355053,0.10631035625213164,0.28815173660320537,"(0.0, 0.0, 0.0, 0.0, 0.0, 0.0, 0.0, 0.0, 0.0)",2.586895,-0.404614,2.05137,"(0.0, 0.0, 0.0, 0.0, 0.0, 0.0, 0.0, 0.0, 0.0)",6.452,4.541,0.839,"(0.0, 0.0, 0.0, 0.0, 0.0, 0.0, 0.0, 0.0, 0.0)",0,0,0,,-0.1857,-0.1769,-0.4677,"(0.0, 0.0, 0.0, 0.0, 0.0, 0.0, 0.0, 0.0, 0.0)"
1677800811.7805731,4213,1677800811,739395141,imu1_frame,"$VNYMR,+055.511,-001.682,-140.316,-00.2099,-00.2086,-00.4518,+07.543,+07.463,+01.526,+02.976255,-02.204933,+01.202610*61",0,0,0,,-0.8299960395854102,-0.4424135303858995,0.145836397234956,0.3067712301464186,"(0.0, 0.0, 0.0, 0.0, 0.0, 0.0, 0.0, 0.0, 0.0)",2.976255,-2.204933,1.20261,"(0.0, 0.0, 0.0, 0.0, 0.0, 0.0, 0.0, 0.0, 0.0)",7.543,7.463,1.526,"(0.0, 0.0, 0.0, 0.0, 0.0, 0.0, 0.0, 0.0, 0.0)",0,0,0,,-0.2099,-0.2086,-0.4518,"(0.0, 0.0, 0.0, 0.0, 0.0, 0.0, 0.0, 0.0, 0.0)"
1677800811.7805943,4214,1677800811,764710903,imu1_frame,"$VNYMR,+056.578,+002.001,-137.278,-00.2329,-00.2130,-00.4460,+08.326,+07.940,+02.273,+01.223463,-02.447616,+00.892374*63",0,0,0,,-0.8229659440167962,-0.43569500644560605,0.18691486495142928,0.31298522266569595,"(0.0, 0.0, 0.0, 0.0, 0.0, 0.0, 0.0, 0.0, 0.0)",1.223463,-2.447616,0.892374,"(0.0, 0.0, 0.0, 0.0, 0.0, 0.0, 0.0, 0.0, 0.0)",8.326,7.94,2.273,"(0.0, 0.0, 0.0, 0.0, 0.0, 0.0, 0.0, 0.0, 0.0)",0,0,0,,-0.2329,-0.213,-0.446,"(0.0, 0.0, 0.0, 0.0, 0.0, 0.0, 0.0, 0.0, 0.0)"
1677800811.8263652,4215,1677800811,790053367,imu1_frame,"$VNYMR,+058.007,+005.155,-137.064,-00.2637,-00.2127,-00.4198,+09.257,+07.192,+03.451,-00.560613,-02.132271,+00.758396*65",0,0,0,,-0.8210695401756103,-0.4363733839275047,0.21387361574273894,0.299468122651807,"(0.0, 0.0, 0.0, 0.0, 0.0, 0.0, 0.0, 0.0, 0.0)",-0.560613,-2.132271,0.758396,"(0.0, 0.0, 0.0, 0.0, 0.0, 0.0, 0.0, 0.0, 0.0)",9.257,7.192,3.451,"(0.0, 0.0, 0.0, 0.0, 0.0, 0.0, 0.0, 0.0, 0.0)",0,0,0,,-0.2637,-0.2127,-0.4198,"(0.0, 0.0, 0.0, 0.0, 0.0, 0.0, 0.0, 0.0, 0.0)"
1677800811.826384,4216,1677800811,815527200,imu1_frame,"$VNYMR,+059.532,+008.260,-137.986,-00.2874,-00.2105,-00.4133,+09.104,+05.982,+05.121,-00.760178,-02.418492,+00.519632*6A",0,0,0,,-0.8210791190150888,-0.43984771217019075,0.23587174980951384,0.2769974513562404,"(0.0, 0.0, 0.0, 0.0, 0.0, 0.0, 0.0, 0.0, 0.0)",-0.760178,-2.418492,0.519632,"(0.0, 0.0, 0.0, 0.0, 0.0, 0.0, 0.0, 0.0, 0.0)",9.104,5.982,5.121,"(0.0, 0.0, 0.0, 0.0, 0.0, 0.0, 0.0, 0.0, 0.0)",0,0,0,,-0.2874,-0.2105,-0.4133,"(0.0, 0.0, 0.0, 0.0, 0.0, 0.0, 0.0, 0.0, 0.0)"
1677800811.8772233,4217,1677800811,838975191,imu1_frame,"$VNYMR,+062.192,+011.515,-137.656,-00.3125,-00.2115,-00.4065,+08.796,+04.502,+08.213,+00.272118,-03.285999,-00.084909*69",0,0,0,,-0.813187695431994,-0.4481568081074281,0.26569766462216254,0.2593954478384175,"(0.0, 0.0, 0.0, 0.0, 0.0, 0.0, 0.0, 0.0, 0.0)",0.272118,-3.285999,-0.084909,"(0.0, 0.0, 0.0, 0.0, 0.0, 0.0, 0.0, 0.0, 0.0)",8.796,4.502,8.213,"(0.0, 0.0, 0.0, 0.0, 0.0, 0.0, 0.0, 0.0, 0.0)",0,0,0,,-0.3125,-0.2115,-0.4065,"(0.0, 0.0, 0.0, 0.0, 0.0, 0.0, 0.0, 0.0, 0.0)"
1677800811.8772864,4218,1677800811,864515542,imu1_frame,"$VNYMR,+065.587,+016.121,-135.199,-00.3488,-00.2122,-00.3635,+08.173,+05.052,+08.828,+01.662277,-04.290445,+01.152534*6E",0,0,0,,-0.7984589808611527,-0.45087875408679123,0.3133353605895153,0.2469667119260217,"(0.0, 0.0, 0.0, 0.0, 0.0, 0.0, 0.0, 0.0, 0.0)",1.662277,-4.290445,1.152534,"(0.0, 0.0, 0.0, 0.0, 0.0, 0.0, 0.0, 0.0, 0.0)",8.173,5.052,8.828,"(0.0, 0.0, 0.0, 0.0, 0.0, 0.0, 0.0, 0.0, 0.0)",0,0,0,,-0.3488,-0.2122,-0.3635,"(0.0, 0.0, 0.0, 0.0, 0.0, 0.0, 0.0, 0.0, 0.0)"
1677800811.916593,4219,1677800811,889808654,imu1_frame,"$VNYMR,+067.847,+024.098,-130.857,-00.4013,-00.2016,-00.3218,+07.339,+07.724,+03.388,+03.357889,-04.955372,+04.778887*65",0,0,0,,-0.7864593714049933,-0.42433739288117156,0.38448511392764206,0.23149650386155168,"(0.0, 0.0, 0.0, 0.0, 0.0, 0.0, 0.0, 0.0, 0.0)",3.357889,-4.955372,4.778887,"(0.0, 0.0, 0.0, 0.0, 0.0, 0.0, 0.0, 0.0, 0.0)",7.339,7.724,3.388,"(0.0, 0.0, 0.0, 0.0, 0.0, 0.0, 0.0, 0.0, 0.0)",0,0,0,,-0.4013,-0.2016,-0.3218,"(0.0, 0.0, 0.0, 0.0, 0.0, 0.0, 0.0, 0.0, 0.0)"
1677800811.9178321,4220,1677800811,915150165,imu1_frame,"$VNYMR,+067.512,+035.045,-125.908,-00.4613,-00.1707,-00.2442,+09.003,+00.507,+01.167,+02.957680,-04.516994,+05.738869*6C",0,0,0,,-0.7822012223175263,-0.35810536352868044,0.4638836569935676,0.21150354415761824,"(0.0, 0.0, 0.0, 0.0, 0.0, 0.0, 0.0, 0.0, 0.0)",2.95768,-4.516994,5.738869,"(0.0, 0.0, 0.0, 0.0, 0.0, 0.0, 0.0, 0.0, 0.0)",9.003,0.507,1.167,"(0.0, 0.0, 0.0, 0.0, 0.0, 0.0, 0.0, 0.0, 0.0)",0,0,0,,-0.4613,-0.1707,-0.2442,"(0.0, 0.0, 0.0, 0.0, 0.0, 0.0, 0.0, 0.0, 0.0)"
1677800811.9621155,4221,1677800811,940581560,imu1_frame,"$VNYMR,+071.089,+041.414,-122.595,-00.4865,-00.1535,-00.2117,+10.479,-01.938,+02.185,-00.704534,-03.732555,+00.123383*64",0,0,0,,-0.7663015660626151,-0.3387916334880131,0.5135087891173958,0.18523191525137675,"(0.0, 0.0, 0.0, 0.0, 0.0, 0.0, 0.0, 0.0, 0.0)",-0.704534,-3.732555,0.123383,"(0.0, 0.0, 0.0, 0.0, 0.0, 0.0, 0.0, 0.0, 0.0)",10.479,-1.938,2.185,"(0.0, 0.0, 0.0, 0.0, 0.0, 0.0, 0.0, 0.0, 0.0)",0,0,0,,-0.4865,-0.1535,-0.2117,"(0.0, 0.0, 0.0, 0.0, 0.0, 0.0, 0.0, 0.0, 0.0)"
1677800812.009148,4222,1677800811,964042425,imu1_frame,"$VNYMR,+077.062,+042.923,-119.519,-00.4966,-00.1646,-00.1742,+11.165,+04.678,+07.017,-00.434430,-02.784098,-00.661362*6A",0,0,0,,-0.7437466819563835,-0.3567070707182683,0.5392436816463189,0.16975626816994388,"(0.0, 0.0, 0.0, 0.0, 0.0, 0.0, 0.0, 0.0, 0.0)",-0.43443,-2.784098,-0.661362,"(0.0, 0.0, 0.0, 0.0, 0.0, 0.0, 0.0, 0.0, 0.0)",11.165,4.678,7.017,"(0.0, 0.0, 0.0, 0.0, 0.0, 0.0, 0.0, 0.0, 0.0)",0,0,0,,-0.4966,-0.1646,-0.1742,"(0.0, 0.0, 0.0, 0.0, 0.0, 0.0, 0.0, 0.0, 0.0)"
1677800812.009174,4223,1677800811,989612579,imu1_frame,"$VNYMR,+080.516,+043.040,-118.496,-00.5003,-00.1647,-00.1459,+10.697,+05.034,+05.499,-01.269231,-00.823039,-01.009130*66",0,0,0,,-0.7313283947056517,-0.37350854696360014,0.54797557925505,0.15928875974935236,"(0.0, 0.0, 0.0, 0.0, 0.0, 0.0, 0.0, 0.0, 0.0)",-1.269231,-0.823039,-1.00913,"(0.0, 0.0, 0.0, 0.0, 0.0, 0.0, 0.0, 0.0, 0.0)",10.697,5.034,5.499,"(0.0, 0.0, 0.0, 0.0, 0.0, 0.0, 0.0, 0.0, 0.0)",0,0,0,,-0.5003,-0.1647,-0.1459,"(0.0, 0.0, 0.0, 0.0, 0.0, 0.0, 0.0, 0.0, 0.0)"
1677800812.0511093,4224,1677800812,14959335,imu1_frame,"$VNYMR,+082.186,+041.728,-119.649,-00.4969,-00.1738,-00.1640,+09.884,+05.699,+05.709,-01.738693,-00.195619,-01.282110*65",0,0,0,,-0.7264627308840171,-0.3960390527350321,0.5407583438750994,0.15160930998700042,"(0.0, 0.0, 0.0, 0.0, 0.0, 0.0, 0.0, 0.0, 0.0)",-1.738693,-0.195619,-1.28211,"(0.0, 0.0, 0.0, 0.0, 0.0, 0.0, 0.0, 0.0, 0.0)",9.884,5.699,5.709,"(0.0, 0.0, 0.0, 0.0, 0.0, 0.0, 0.0, 0.0, 0.0)",0,0,0,,-0.4969,-0.1738,-0.164,"(0.0, 0.0, 0.0, 0.0, 0.0, 0.0, 0.0, 0.0, 0.0)"
1677800812.051132,4225,1677800812,40263652,imu1_frame,"$VNYMR,+083.967,+040.594,-121.168,-00.4926,-00.1986,-00.1696,+09.066,+07.074,+07.300,-01.879786,-00.518639,-01.064411*6D",0,0,0,,-0.721263411639208,-0.41985337342721635,0.5327470152511855,0.14029559363468952,"(0.0, 0.0, 0.0, 0.0, 0.0, 0.0, 0.0, 0.0, 0.0)",-1.879786,-0.518639,-1.064411,"(0.0, 0.0, 0.0, 0.0, 0.0, 0.0, 0.0, 0.0, 0.0)",9.066,7.074,7.3,"(0.0, 0.0, 0.0, 0.0, 0.0, 0.0, 0.0, 0.0, 0.0)",0,0,0,,-0.4926,-0.1986,-0.1696,"(0.0, 0.0, 0.0, 0.0, 0.0, 0.0, 0.0, 0.0, 0.0)"
1677800812.0930948,4226,1677800812,65675735,imu1_frame,"$VNYMR,+085.688,+039.731,-122.642,-00.4893,-00.2032,-00.1730,+06.550,+06.180,+08.938,-01.662291,-00.458451,-01.034023*69",0,0,0,,-0.7158741419702164,-0.44151273043191336,0.5255043884985208,0.1282024157095289,"(0.0, 0.0, 0.0, 0.0, 0.0, 0.0, 0.0, 0.0, 0.0)",-1.662291,-0.458451,-1.034023,"(0.0, 0.0, 0.0, 0.0, 0.0, 0.0, 0.0, 0.0, 0.0)",6.55,6.18,8.938,"(0.0, 0.0, 0.0, 0.0, 0.0, 0.0, 0.0, 0.0, 0.0)",0,0,0,,-0.4893,-0.2032,-0.173,"(0.0, 0.0, 0.0, 0.0, 0.0, 0.0, 0.0, 0.0, 0.0)"
1677800812.093119,4227,1677800812,89240312,imu1_frame,"$VNYMR,+087.720,+038.828,-124.221,-00.4873,-00.2200,-00.1628,+04.357,+05.307,+08.752,-02.328149,-00.655159,-01.133571*6B",0,0,0,,-0.7087858749392106,-0.4654900848882529,0.5175160582738246,0.11453686649331715,"(0.0, 0.0, 0.0, 0.0, 0.0, 0.0, 0.0, 0.0, 0.0)",-2.328149,-0.655159,-1.133571,"(0.0, 0.0, 0.0, 0.0, 0.0, 0.0, 0.0, 0.0, 0.0)",4.357,5.307,8.752,"(0.0, 0.0, 0.0, 0.0, 0.0, 0.0, 0.0, 0.0, 0.0)",0,0,0,,-0.4873,-0.22,-0.1628,"(0.0, 0.0, 0.0, 0.0, 0.0, 0.0, 0.0, 0.0, 0.0)"
1677800812.140656,4228,1677800812,114552974,imu1_frame,"$VNYMR,+090.178,+038.302,-125.759,-00.4841,-00.2313,-00.1625,+05.066,+07.418,+07.525,-01.718455,-01.180125,-00.865095*6A",0,0,0,,-0.6995174632186849,-0.48986904652188124,0.5111235746873581,0.09724364920474615,"(0.0, 0.0, 0.0, 0.0, 0.0, 0.0, 0.0, 0.0, 0.0)",-1.718455,-1.180125,-0.865095,"(0.0, 0.0, 0.0, 0.0, 0.0, 0.0, 0.0, 0.0, 0.0)",5.066,7.418,7.525,"(0.0, 0.0, 0.0, 0.0, 0.0, 0.0, 0.0, 0.0, 0.0)",0,0,0,,-0.4841,-0.2313,-0.1625,"(0.0, 0.0, 0.0, 0.0, 0.0, 0.0, 0.0, 0.0, 0.0)"
1677800812.1423337,4229,1677800812,139967203,imu1_frame,"$VNYMR,+093.062,+038.952,-126.219,-00.4897,-00.2324,-00.1646,+04.186,+05.730,+06.741,-01.445592,-01.858958,-00.389195*67",0,0,0,,-0.6879074901529685,-0.5064941633142549,0.5140369277017031,0.0775434360795961,"(0.0, 0.0, 0.0, 0.0, 0.0, 0.0, 0.0, 0.0, 0.0)",-1.445592,-1.858958,-0.389195,"(0.0, 0.0, 0.0, 0.0, 0.0, 0.0, 0.0, 0.0, 0.0)",4.186,5.73,6.741,"(0.0, 0.0, 0.0, 0.0, 0.0, 0.0, 0.0, 0.0, 0.0)",0,0,0,,-0.4897,-0.2324,-0.1646,"(0.0, 0.0, 0.0, 0.0, 0.0, 0.0, 0.0, 0.0, 0.0)"
1677800812.1850092,4230,1677800812,165404081,imu1_frame,"$VNYMR,+096.764,+040.253,-125.880,-00.4921,-00.2277,-00.1391,+02.559,+04.506,+06.198,-01.472884,-02.308717,-00.551128*6C",0,0,0,,-0.6723636256903972,-0.5211319726785821,0.5228443865203228,0.05461107382921704,"(0.0, 0.0, 0.0, 0.0, 0.0, 0.0, 0.0, 0.0, 0.0)",-1.472884,-2.308717,-0.551128,"(0.0, 0.0, 0.0, 0.0, 0.0, 0.0, 0.0, 0.0, 0.0)",2.559,4.506,6.198,"(0.0, 0.0, 0.0, 0.0, 0.0, 0.0, 0.0, 0.0, 0.0)",0,0,0,,-0.4921,-0.2277,-0.1391,"(0.0, 0.0, 0.0, 0.0, 0.0, 0.0, 0.0, 0.0, 0.0)"
1677800812.2298498,4231,1677800812,188788652,imu1_frame,"$VNYMR,+100.978,+041.178,-125.719,-00.4901,-00.2434,-00.1266,+02.343,+05.029,+05.566,-01.890584,-02.024228,-00.867003*64",0,0,0,,-0.6537724655003763,-0.5406377979904622,0.5285610748785108,0.03025764136307832,"(0.0, 0.0, 0.0, 0.0, 0.0, 0.0, 0.0, 0.0, 0.0)",-1.890584,-2.024228,-0.867003,"(0.0, 0.0, 0.0, 0.0, 0.0, 0.0, 0.0, 0.0, 0.0)",2.343,5.029,5.566,"(0.0, 0.0, 0.0, 0.0, 0.0, 0.0, 0.0, 0.0, 0.0)",0,0,0,,-0.4901,-0.2434,-0.1266,"(0.0, 0.0, 0.0, 0.0, 0.0, 0.0, 0.0, 0.0, 0.0)"
1677800812.229872,4232,1677800812,214246034,imu1_frame,"$VNYMR,+104.504,+041.374,-125.995,-00.4901,-00.2536,-00.1314,+03.417,+05.131,+05.429,-01.583716,-01.344421,-01.040879*67",0,0,0,,-0.6371077529238408,-0.5608988372288468,0.5285468943307488,0.01115284954539783,"(0.0, 0.0, 0.0, 0.0, 0.0, 0.0, 0.0, 0.0, 0.0)",-1.583716,-1.344421,-1.040879,"(0.0, 0.0, 0.0, 0.0, 0.0, 0.0, 0.0, 0.0, 0.0)",3.417,5.131,5.429,"(0.0, 0.0, 0.0, 0.0, 0.0, 0.0, 0.0, 0.0, 0.0)",0,0,0,,-0.4901,-0.2536,-0.1314,"(0.0, 0.0, 0.0, 0.0, 0.0, 0.0, 0.0, 0.0, 0.0)"
1677800812.2767384,4233,1677800812,239717006,imu1_frame,"$VNYMR,+107.397,+041.080,-126.004,-00.4913,-00.2546,-00.1143,+04.206,+05.294,+04.187,-01.156062,-00.916944,-01.029289*6B",0,0,0,,-0.6223434387394275,-0.5781384612810376,0.5276783947723975,-0.00027483814212103663,"(0.0, 0.0, 0.0, 0.0, 0.0, 0.0, 0.0, 0.0, 0.0)",-1.156062,-0.916944,-1.029289,"(0.0, 0.0, 0.0, 0.0, 0.0, 0.0, 0.0, 0.0, 0.0)",4.206,5.294,4.187,"(0.0, 0.0, 0.0, 0.0, 0.0, 0.0, 0.0, 0.0, 0.0)",0,0,0,,-0.4913,-0.2546,-0.1143,"(0.0, 0.0, 0.0, 0.0, 0.0, 0.0, 0.0, 0.0, 0.0)"
1677800812.276764,4234,1677800812,265075206,imu1_frame,"$VNYMR,+109.602,+040.333,-126.351,-00.4838,-00.2805,-00.1159,+04.542,+04.499,+02.607,-01.348336,-00.457537,-01.091497*6D",0,0,0,,-0.6099823993062912,-0.5948439725372032,0.5234785793154355,-0.007231726667450172,"(0.0, 0.0, 0.0, 0.0, 0.0, 0.0, 0.0, 0.0, 0.0)",-1.348336,-0.457537,-1.091497,"(0.0, 0.0, 0.0, 0.0, 0.0, 0.0, 0.0, 0.0, 0.0)",4.542,4.499,2.607,"(0.0, 0.0, 0.0, 0.0, 0.0, 0.0, 0.0, 0.0, 0.0)",0,0,0,,-0.4838,-0.2805,-0.1159,"(0.0, 0.0, 0.0, 0.0, 0.0, 0.0, 0.0, 0.0, 0.0)"
1677800812.3218331,4235,1677800812,290447473,imu1_frame,"$VNYMR,+111.227,+039.260,-127.692,-00.4743,-00.2882,-00.1287,+04.223,+03.495,+02.149,-01.914918,-00.082212,-01.102319*6C",0,0,0,,-0.5996861775511523,-0.6140691889668869,0.5129218650297142,-0.014376369154876,"(0.0, 0.0, 0.0, 0.0, 0.0, 0.0, 0.0, 0.0, 0.0)",-1.914918,-0.082212,-1.102319,"(0.0, 0.0, 0.0, 0.0, 0.0, 0.0, 0.0, 0.0, 0.0)",4.223,3.495,2.149,"(0.0, 0.0, 0.0, 0.0, 0.0, 0.0, 0.0, 0.0, 0.0)",0,0,0,,-0.4743,-0.2882,-0.1287,"(0.0, 0.0, 0.0, 0.0, 0.0, 0.0, 0.0, 0.0, 0.0)"
1677800812.3218625,4236,1677800812,315799713,imu1_frame,"$VNYMR,+112.448,+037.948,-130.047,-00.4644,-00.2894,-00.1548,+03.599,+02.443,+02.632,-02.270095,+00.076612,-01.178288*69",0,0,0,,-0.5906908970158868,-0.6362178827162892,0.4957643821687251,-0.02299450515735013,"(0.0, 0.0, 0.0, 0.0, 0.0, 0.0, 0.0, 0.0, 0.0)",-2.270095,0.076612,-1.178288,"(0.0, 0.0, 0.0, 0.0, 0.0, 0.0, 0.0, 0.0, 0.0)",3.599,2.443,2.632,"(0.0, 0.0, 0.0, 0.0, 0.0, 0.0, 0.0, 0.0, 0.0)",0,0,0,,-0.4644,-0.2894,-0.1548,"(0.0, 0.0, 0.0, 0.0, 0.0, 0.0, 0.0, 0.0, 0.0)"
1677800812.3648846,4237,1677800812,339358091,imu1_frame,"$VNYMR,+113.748,+036.731,-132.245,-00.4601,-00.3018,-00.1568,+02.606,+02.136,+03.239,-01.791569,-00.002394,-00.986591*6D",0,0,0,,-0.5810672741012989,-0.6570919711409862,0.4791747535196237,-0.03134517538549228,"(0.0, 0.0, 0.0, 0.0, 0.0, 0.0, 0.0, 0.0, 0.0)",-1.791569,-0.002394,-0.986591,"(0.0, 0.0, 0.0, 0.0, 0.0, 0.0, 0.0, 0.0, 0.0)",2.606,2.136,3.239,"(0.0, 0.0, 0.0, 0.0, 0.0, 0.0, 0.0, 0.0, 0.0)",0,0,0,,-0.4601,-0.3018,-0.1568,"(0.0, 0.0, 0.0, 0.0, 0.0, 0.0, 0.0, 0.0, 0.0)"
